session_code,participant_code,market_uuid,trader_uuid,gamified,hybrid,algo_present,trading_day,payoff,initial_cash,forecast,forecast_confidence,current_cash,num_shares,algorithm_belief,trade_payoff,fin_quiz_score,self_assessment,overconfidence,cq_attempt_count,gender_female,age,finance_course,trading_experience,high_education,repetition,n_buys,n_sells,net_position,n_trades_market,avg_trade_price,avg_mispricing,avg_abs_mispricing,closing_price,opening_price,max_price,min_price,fundamental_value,price_L1,price_L2,price_next,return,abs_mispricing_ratio,surge,crash,normalized_mispricing,bubble_period,bubble_start,wealth_day,gini,feedback_flag,speculator_flag,fundamental_flag,other_flag
uik7aoor,nwrelnt3,5c7e4638-30e0-4888-990f-24f3d564c836,7101c7b2-cced-4f23-8b1e-af06300a3134,0,0,0,1,5638.0,2600.0,,,2740.0,19.0,,5578.0,0.3333333333333333,8.0,0.46666666666666673,2,0,33.0,0.0,1.0,1,1,1.0,2.0,-1.0,4.0,122.5,2.5,5.0,115.0,125.0,130.0,115.0,120,,,117.5,,0.041666666666666664,0,0,0.020833333333333332,0,0,5020.0,0.003115653040877368,0.0,0.0,0.0,1.0
uik7aoor,jyza2hen,5c7e4638-30e0-4888-990f-24f3d564c836,be95f527-5ad3-4c59-b86e-16b055696e7d,0,0,0,1,4939.0,3800.0,,,3800.0,10.0,,4789.0,0.9166666666666666,10.0,0.08333333333333337,1,1,23.0,0.0,1.0,1,1,0.0,0.0,0.0,4.0,122.5,2.5,5.0,115.0,125.0,130.0,115.0,120,,,117.5,,0.041666666666666664,0,0,0.020833333333333332,0,0,5000.0,0.003115653040877368,0.0,0.0,0.0,1.0
uik7aoor,8hcohaqe,5c7e4638-30e0-4888-990f-24f3d564c836,a9a9bfc8-0b2a-4983-bcf0-4b86c657dd86,0,0,0,1,4900.0,2600.0,,,2720.0,19.0,,4720.0,1.0,2.0,-0.8,2,1,22.0,0.0,0.0,0,1,0.0,1.0,-1.0,4.0,122.5,2.5,5.0,115.0,125.0,130.0,115.0,120,,,117.5,,0.041666666666666664,0,0,0.020833333333333332,0,0,5000.0,0.003115653040877368,0.0,1.0,0.0,0.0
uik7aoor,4emhkmm9,5c7e4638-30e0-4888-990f-24f3d564c836,78864939-4723-4d4e-a310-1733979e65ba,0,0,0,1,5371.0,3800.0,,,3800.0,10.0,,5301.0,0.25,10.0,0.75,1,0,45.0,0.0,1.0,1,1,0.0,0.0,0.0,4.0,122.5,2.5,5.0,115.0,125.0,130.0,115.0,120,,,117.5,,0.041666666666666664,0,0,0.020833333333333332,0,0,5000.0,0.003115653040877368,0.0,1.0,0.0,0.0
uik7aoor,gfuuq2ww,5c7e4638-30e0-4888-990f-24f3d564c836,f4139a7f-b72e-4c9e-b9f8-776ff8a34dc9,0,0,0,1,4482.0,2600.0,,,2355.0,22.0,,4462.0,0.16666666666666666,3.0,0.13333333333333333,3,1,19.0,0.0,0.0,1,1,2.0,0.0,2.0,4.0,122.5,2.5,5.0,115.0,125.0,130.0,115.0,120,,,117.5,,0.041666666666666664,0,0,0.020833333333333332,0,0,4995.0,0.003115653040877368,0.0,0.0,0.0,1.0
uik7aoor,cl09qtj4,5c7e4638-30e0-4888-990f-24f3d564c836,ce2794fe-8d67-4dc5-a1e4-fda7496f0027,0,0,0,1,4825.0,3800.0,,,3800.0,10.0,,4715.0,0.9166666666666666,1.0,-0.8166666666666667,5,0,44.0,0.0,0.0,1,1,0.0,0.0,0.0,4.0,122.5,2.5,5.0,115.0,125.0,130.0,115.0,120,,,117.5,,0.041666666666666664,0,0,0.020833333333333332,0,0,5000.0,0.003115653040877368,0.0,0.0,1.0,0.0
uik7aoor,2i53nqi2,5c7e4638-30e0-4888-990f-24f3d564c836,336243e5-56a5-47f6-9862-1a9c250841e8,0,0,0,1,5674.0,2600.0,,,2470.0,21.0,,5664.0,0.08333333333333333,10.0,0.9166666666666666,1,1,22.0,0.0,0.0,0,1,1.0,0.0,1.0,4.0,122.5,2.5,5.0,115.0,125.0,130.0,115.0,120,,,117.5,,0.041666666666666664,0,0,0.020833333333333332,0,0,4990.0,0.003115653040877368,0.0,0.0,0.0,1.0
uik7aoor,wffepf9u,5c7e4638-30e0-4888-990f-24f3d564c836,4e3199a4-5b9d-45d0-980a-96571662a0a8,0,0,0,1,5134.0,3800.0,,,3915.0,10.0,,5074.0,0.3333333333333333,8.0,0.46666666666666673,1,1,44.0,0.0,1.0,1,1,0.0,1.0,-1.0,4.0,122.5,2.5,5.0,115.0,125.0,130.0,115.0,120,,,117.5,,0.041666666666666664,0,0,0.020833333333333332,0,0,5115.0,0.003115653040877368,0.0,0.0,0.0,1.0
uik7aoor,b2sjpg82,418c69c6-ec34-43cb-8592-f2fd1b6fcf4f,3f6f9d47-f2e6-44f6-8da9-2c8a16a3df63,1,1,0,1,5772.0,2600.0,,,2620.0,20.0,1.0,5702.0,0.5833333333333334,3.0,-0.2833333333333334,3,0,22.0,0.0,0.0,1,1,1.0,1.0,0.0,4.0,127.5,7.5,12.5,150.0,130.0,150.0,110.0,120,,,170.0,,0.10416666666666667,0,0,0.0625,0,0,5020.0,0.0029910269192422734,0.0,0.0,1.0,0.0
uik7aoor,juhy06e8,418c69c6-ec34-43cb-8592-f2fd1b6fcf4f,e35674dc-ec96-4955-9641-275f1f5a2902,1,1,0,1,4773.0,3800.0,,,3910.0,9.0,0.0,4693.0,0.6666666666666666,8.0,0.13333333333333341,1,1,66.0,0.0,0.0,1,1,0.0,1.0,-1.0,4.0,127.5,7.5,12.5,150.0,130.0,150.0,110.0,120,,,170.0,,0.10416666666666667,0,0,0.0625,0,0,4990.0,0.0029910269192422734,0.0,0.0,0.0,1.0
uik7aoor,hliggtnp,418c69c6-ec34-43cb-8592-f2fd1b6fcf4f,fde48bd3-7bd3-4e77-a95f-25abeea55ed0,1,1,0,1,5676.0,2600.0,,,2630.0,20.0,0.0,5556.0,1.0,3.0,-0.7,3,1,33.0,1.0,1.0,1,1,1.0,1.0,0.0,4.0,127.5,7.5,12.5,150.0,130.0,150.0,110.0,120,,,170.0,,0.10416666666666667,0,0,0.0625,0,0,5030.0,0.0029910269192422734,0.0,1.0,0.0,0.0
uik7aoor,7y6562pk,418c69c6-ec34-43cb-8592-f2fd1b6fcf4f,022bbf5d-3d6e-47c2-9a2a-66d712d45701,1,1,0,1,4817.0,3800.0,,,3920.0,9.0,1.0,4787.0,0.25,9.0,0.65,1,1,45.0,0.0,1.0,0,1,0.0,1.0,-1.0,4.0,127.5,7.5,12.5,150.0,130.0,150.0,110.0,120,,,170.0,,0.10416666666666667,0,0,0.0625,0,0,5000.0,0.0029910269192422734,0.0,0.0,1.0,0.0
uik7aoor,lk5oyxpy,418c69c6-ec34-43cb-8592-f2fd1b6fcf4f,376885f3-c47c-49f0-a0be-9a38c1b06b80,1,1,0,1,4459.0,2600.0,,,2600.0,20.0,0.0,4419.0,0.3333333333333333,10.0,0.6666666666666667,1,0,33.0,1.0,0.0,1,1,0.0,0.0,0.0,4.0,127.5,7.5,12.5,150.0,130.0,150.0,110.0,120,,,170.0,,0.10416666666666667,0,0,0.0625,0,0,5000.0,0.0029910269192422734,0.0,0.0,0.0,1.0
uik7aoor,tgar6z2d,418c69c6-ec34-43cb-8592-f2fd1b6fcf4f,9f70b144-bb13-4260-831f-f9cb21838f0b,1,1,0,1,4759.0,3800.0,,,3670.0,11.0,1.0,4699.0,0.5,9.0,0.4,4,1,22.0,0.0,1.0,1,1,1.0,0.0,1.0,4.0,127.5,7.5,12.5,150.0,130.0,150.0,110.0,120,,,170.0,,0.10416666666666667,0,0,0.0625,0,0,4990.0,0.0029910269192422734,0.0,0.0,0.0,1.0
uik7aoor,z3reux71,418c69c6-ec34-43cb-8592-f2fd1b6fcf4f,9d53611f-f803-450c-bed2-ad0697c26298,1,1,0,1,5706.0,2600.0,,,2450.0,22.0,0.0,5636.0,0.5833333333333334,9.0,0.31666666666666665,1,1,21.0,0.0,0.0,0,1,1.0,0.0,1.0,4.0,127.5,7.5,12.5,150.0,130.0,150.0,110.0,120,,,170.0,,0.10416666666666667,0,0,0.0625,0,0,5090.0,0.0029910269192422734,0.0,0.0,0.0,1.0
uik7aoor,a12rmbju,418c69c6-ec34-43cb-8592-f2fd1b6fcf4f,d08bcb2b-8529-4fb2-8df1-d0ba2880bbed,1,1,0,1,5027.0,3800.0,,,3800.0,10.0,1.0,4907.0,1.0,4.0,-0.6,2,0,23.0,1.0,1.0,1,1,0.0,0.0,0.0,4.0,127.5,7.5,12.5,150.0,130.0,150.0,110.0,120,,,170.0,,0.10416666666666667,0,0,0.0625,0,0,5000.0,0.0029910269192422734,0.0,0.0,0.0,1.0
uik7aoor,nwrelnt3,5c7e4638-30e0-4888-990f-24f3d564c836,7101c7b2-cced-4f23-8b1e-af06300a3134,0,0,0,2,5638.0,2600.0,,,2782.0,20.0,,5578.0,0.3333333333333333,8.0,0.46666666666666673,2,0,33.0,0.0,1.0,1,1,1.0,0.0,1.0,3.0,115.16666666666667,3.1666666666666665,4.5,117.5,110.0,118.0,110.0,112,115.0,,90.0,0.021739130434782705,0.04017857142857143,0,0,0.028273809523809566,0,0,5022.0,0.0009966756648670265,0.0,0.0,0.0,1.0
uik7aoor,jyza2hen,5c7e4638-30e0-4888-990f-24f3d564c836,be95f527-5ad3-4c59-b86e-16b055696e7d,0,0,0,2,4939.0,3800.0,,,3880.0,10.0,,4789.0,0.9166666666666666,10.0,0.08333333333333337,1,1,23.0,0.0,1.0,1,1,0.0,0.0,0.0,3.0,115.16666666666667,3.1666666666666665,4.5,117.5,110.0,118.0,110.0,112,115.0,,90.0,0.021739130434782705,0.04017857142857143,0,0,0.028273809523809566,0,0,5000.0,0.0009966756648670265,0.0,0.0,0.0,1.0
uik7aoor,8hcohaqe,5c7e4638-30e0-4888-990f-24f3d564c836,a9a9bfc8-0b2a-4983-bcf0-4b86c657dd86,0,0,0,2,4900.0,2600.0,,,2872.0,19.0,,4720.0,1.0,2.0,-0.8,2,1,22.0,0.0,0.0,0,1,0.0,0.0,0.0,3.0,115.16666666666667,3.1666666666666665,4.5,117.5,110.0,118.0,110.0,112,115.0,,90.0,0.021739130434782705,0.04017857142857143,0,0,0.028273809523809566,0,0,5000.0,0.0009966756648670265,0.0,1.0,0.0,0.0
uik7aoor,4emhkmm9,5c7e4638-30e0-4888-990f-24f3d564c836,78864939-4723-4d4e-a310-1733979e65ba,0,0,0,2,5371.0,3800.0,,,3880.0,10.0,,5301.0,0.25,10.0,0.75,1,0,45.0,0.0,1.0,1,1,0.0,0.0,0.0,3.0,115.16666666666667,3.1666666666666665,4.5,117.5,110.0,118.0,110.0,112,115.0,,90.0,0.021739130434782705,0.04017857142857143,0,0,0.028273809523809566,0,0,5000.0,0.0009966756648670265,0.0,1.0,0.0,0.0
uik7aoor,gfuuq2ww,5c7e4638-30e0-4888-990f-24f3d564c836,f4139a7f-b72e-4c9e-b9f8-776ff8a34dc9,0,0,0,2,4482.0,2600.0,,,2531.0,22.0,,4462.0,0.16666666666666666,3.0,0.13333333333333333,3,1,19.0,0.0,0.0,1,1,0.0,0.0,0.0,3.0,115.16666666666667,3.1666666666666665,4.5,117.5,110.0,118.0,110.0,112,115.0,,90.0,0.021739130434782705,0.04017857142857143,0,0,0.028273809523809566,0,0,4995.0,0.0009966756648670265,0.0,0.0,0.0,1.0
uik7aoor,cl09qtj4,5c7e4638-30e0-4888-990f-24f3d564c836,ce2794fe-8d67-4dc5-a1e4-fda7496f0027,0,0,0,2,4825.0,3800.0,,,3998.0,9.0,,4715.0,0.9166666666666666,1.0,-0.8166666666666667,5,0,44.0,0.0,0.0,1,1,0.0,1.0,-1.0,3.0,115.16666666666667,3.1666666666666665,4.5,117.5,110.0,118.0,110.0,112,115.0,,90.0,0.021739130434782705,0.04017857142857143,0,0,0.028273809523809566,0,0,5006.0,0.0009966756648670265,0.0,0.0,1.0,0.0
uik7aoor,2i53nqi2,5c7e4638-30e0-4888-990f-24f3d564c836,336243e5-56a5-47f6-9862-1a9c250841e8,0,0,0,2,5674.0,2600.0,,,2520.5,22.0,,5664.0,0.08333333333333333,10.0,0.9166666666666666,1,1,22.0,0.0,0.0,0,1,1.0,0.0,1.0,3.0,115.16666666666667,3.1666666666666665,4.5,117.5,110.0,118.0,110.0,112,115.0,,90.0,0.021739130434782705,0.04017857142857143,0,0,0.028273809523809566,0,0,4984.5,0.0009966756648670265,0.0,0.0,0.0,1.0
uik7aoor,wffepf9u,5c7e4638-30e0-4888-990f-24f3d564c836,4e3199a4-5b9d-45d0-980a-96571662a0a8,0,0,0,2,5134.0,3800.0,,,4104.5,8.0,,5074.0,0.3333333333333333,8.0,0.46666666666666673,1,1,44.0,0.0,1.0,1,1,1.0,2.0,-1.0,3.0,115.16666666666667,3.1666666666666665,4.5,117.5,110.0,118.0,110.0,112,115.0,,90.0,0.021739130434782705,0.04017857142857143,0,0,0.028273809523809566,0,0,5000.5,0.0009966756648670265,0.0,0.0,0.0,1.0
uik7aoor,b2sjpg82,418c69c6-ec34-43cb-8592-f2fd1b6fcf4f,3f6f9d47-f2e6-44f6-8da9-2c8a16a3df63,1,1,0,2,5772.0,2600.0,,,2668.0,21.0,1.0,5702.0,0.5833333333333334,3.0,-0.2833333333333334,3,0,22.0,0.0,0.0,1,1,1.0,0.0,1.0,4.0,120.0,8.0,21.0,170.0,90.0,170.0,90.0,112,150.0,,100.0,0.1333333333333333,0.1875,0,0,0.07142857142857142,0,0,5020.0,0.0028369326134773045,0.0,0.0,1.0,0.0
uik7aoor,juhy06e8,418c69c6-ec34-43cb-8592-f2fd1b6fcf4f,e35674dc-ec96-4955-9641-275f1f5a2902,1,1,0,2,4773.0,3800.0,,,3982.0,9.0,0.0,4693.0,0.6666666666666666,8.0,0.13333333333333341,1,1,66.0,0.0,0.0,1,1,0.0,0.0,0.0,4.0,120.0,8.0,21.0,170.0,90.0,170.0,90.0,112,150.0,,100.0,0.1333333333333333,0.1875,0,0,0.07142857142857142,0,0,4990.0,0.0028369326134773045,0.0,0.0,0.0,1.0
uik7aoor,hliggtnp,418c69c6-ec34-43cb-8592-f2fd1b6fcf4f,fde48bd3-7bd3-4e77-a95f-25abeea55ed0,1,1,0,2,5676.0,2600.0,,,2880.0,19.0,0.0,5556.0,1.0,3.0,-0.7,3,1,33.0,1.0,1.0,1,1,0.0,1.0,-1.0,4.0,120.0,8.0,21.0,170.0,90.0,170.0,90.0,112,150.0,,100.0,0.1333333333333333,0.1875,0,0,0.07142857142857142,0,0,5008.0,0.0028369326134773045,0.0,1.0,0.0,0.0
uik7aoor,7y6562pk,418c69c6-ec34-43cb-8592-f2fd1b6fcf4f,022bbf5d-3d6e-47c2-9a2a-66d712d45701,1,1,0,2,4817.0,3800.0,,,3906.0,10.0,1.0,4787.0,0.25,9.0,0.65,1,1,45.0,0.0,1.0,0,1,2.0,1.0,1.0,4.0,120.0,8.0,21.0,170.0,90.0,170.0,90.0,112,150.0,,100.0,0.1333333333333333,0.1875,0,0,0.07142857142857142,0,0,5026.0,0.0028369326134773045,0.0,0.0,1.0,0.0
uik7aoor,lk5oyxpy,418c69c6-ec34-43cb-8592-f2fd1b6fcf4f,376885f3-c47c-49f0-a0be-9a38c1b06b80,1,1,0,2,4459.0,2600.0,,,2590.0,21.0,0.0,4419.0,0.3333333333333333,10.0,0.6666666666666667,1,0,33.0,1.0,0.0,1,1,1.0,0.0,1.0,4.0,120.0,8.0,21.0,170.0,90.0,170.0,90.0,112,150.0,,100.0,0.1333333333333333,0.1875,0,0,0.07142857142857142,0,0,4942.0,0.0028369326134773045,0.0,0.0,0.0,1.0
uik7aoor,tgar6z2d,418c69c6-ec34-43cb-8592-f2fd1b6fcf4f,9f70b144-bb13-4260-831f-f9cb21838f0b,1,1,0,2,4759.0,3800.0,,,3758.0,11.0,1.0,4699.0,0.5,9.0,0.4,4,1,22.0,0.0,1.0,1,1,0.0,0.0,0.0,4.0,120.0,8.0,21.0,170.0,90.0,170.0,90.0,112,150.0,,100.0,0.1333333333333333,0.1875,0,0,0.07142857142857142,0,0,4990.0,0.0028369326134773045,0.0,0.0,0.0,1.0
uik7aoor,z3reux71,418c69c6-ec34-43cb-8592-f2fd1b6fcf4f,9d53611f-f803-450c-bed2-ad0697c26298,1,1,0,2,5706.0,2600.0,,,2904.0,19.0,0.0,5636.0,0.5833333333333334,9.0,0.31666666666666665,1,1,21.0,0.0,0.0,0,1,0.0,2.0,-2.0,4.0,120.0,8.0,21.0,170.0,90.0,170.0,90.0,112,150.0,,100.0,0.1333333333333333,0.1875,0,0,0.07142857142857142,0,0,5032.0,0.0028369326134773045,0.0,0.0,0.0,1.0
uik7aoor,a12rmbju,418c69c6-ec34-43cb-8592-f2fd1b6fcf4f,d08bcb2b-8529-4fb2-8df1-d0ba2880bbed,1,1,0,2,5027.0,3800.0,,,3880.0,10.0,1.0,4907.0,1.0,4.0,-0.6,2,0,23.0,1.0,1.0,1,1,0.0,0.0,0.0,4.0,120.0,8.0,21.0,170.0,90.0,170.0,90.0,112,150.0,,100.0,0.1333333333333333,0.1875,0,0,0.07142857142857142,0,0,5000.0,0.0028369326134773045,0.0,0.0,0.0,1.0
uik7aoor,nwrelnt3,5c7e4638-30e0-4888-990f-24f3d564c836,7101c7b2-cced-4f23-8b1e-af06300a3134,0,0,0,3,5638.0,2600.0,0.0,0.0,2942.0,20.0,,5578.0,0.3333333333333333,8.0,0.46666666666666673,2,0,33.0,0.0,1.0,1,1,0.0,0.0,0.0,4.0,103.0,-1.0,8.0,90.0,111.0,111.0,90.0,104,117.5,115.0,78.0,-0.23404255319148937,0.07692307692307693,0,0,-0.009615384615384616,0,0,5022.0,0.0013528544291141773,0.0,0.0,0.0,1.0
uik7aoor,jyza2hen,5c7e4638-30e0-4888-990f-24f3d564c836,be95f527-5ad3-4c59-b86e-16b055696e7d,0,0,0,3,4939.0,3800.0,0.0,0.0,3960.0,10.0,,4789.0,0.9166666666666666,10.0,0.08333333333333337,1,1,23.0,0.0,1.0,1,1,0.0,0.0,0.0,4.0,103.0,-1.0,8.0,90.0,111.0,111.0,90.0,104,117.5,115.0,78.0,-0.23404255319148937,0.07692307692307693,0,0,-0.009615384615384616,0,0,5000.0,0.0013528544291141773,0.0,0.0,0.0,1.0
uik7aoor,8hcohaqe,5c7e4638-30e0-4888-990f-24f3d564c836,a9a9bfc8-0b2a-4983-bcf0-4b86c657dd86,0,0,0,3,4900.0,2600.0,0.0,0.0,3024.0,19.0,,4720.0,1.0,2.0,-0.8,2,1,22.0,0.0,0.0,0,1,0.0,0.0,0.0,4.0,103.0,-1.0,8.0,90.0,111.0,111.0,90.0,104,117.5,115.0,78.0,-0.23404255319148937,0.07692307692307693,0,0,-0.009615384615384616,0,0,5000.0,0.0013528544291141773,0.0,1.0,0.0,0.0
uik7aoor,4emhkmm9,5c7e4638-30e0-4888-990f-24f3d564c836,78864939-4723-4d4e-a310-1733979e65ba,0,0,0,3,5371.0,3800.0,0.0,0.0,4071.0,9.0,,5301.0,0.25,10.0,0.75,1,0,45.0,0.0,1.0,1,1,0.0,1.0,-1.0,4.0,103.0,-1.0,8.0,90.0,111.0,111.0,90.0,104,117.5,115.0,78.0,-0.23404255319148937,0.07692307692307693,0,0,-0.009615384615384616,0,0,5007.0,0.0013528544291141773,0.0,1.0,0.0,0.0
uik7aoor,gfuuq2ww,5c7e4638-30e0-4888-990f-24f3d564c836,f4139a7f-b72e-4c9e-b9f8-776ff8a34dc9,0,0,0,3,4482.0,2600.0,0.0,0.0,2617.0,23.0,,4462.0,0.16666666666666666,3.0,0.13333333333333333,3,1,19.0,0.0,0.0,1,1,1.0,0.0,1.0,4.0,103.0,-1.0,8.0,90.0,111.0,111.0,90.0,104,117.5,115.0,78.0,-0.23404255319148937,0.07692307692307693,0,0,-0.009615384615384616,0,0,5009.0,0.0013528544291141773,0.0,0.0,0.0,1.0
uik7aoor,cl09qtj4,5c7e4638-30e0-4888-990f-24f3d564c836,ce2794fe-8d67-4dc5-a1e4-fda7496f0027,0,0,0,3,4825.0,3800.0,0.0,0.0,3859.0,11.0,,4715.0,0.9166666666666666,1.0,-0.8166666666666667,5,0,44.0,0.0,0.0,1,1,2.0,0.0,2.0,4.0,103.0,-1.0,8.0,90.0,111.0,111.0,90.0,104,117.5,115.0,78.0,-0.23404255319148937,0.07692307692307693,0,0,-0.009615384615384616,0,0,5003.0,0.0013528544291141773,0.0,0.0,1.0,0.0
uik7aoor,2i53nqi2,5c7e4638-30e0-4888-990f-24f3d564c836,336243e5-56a5-47f6-9862-1a9c250841e8,0,0,0,3,5674.0,2600.0,0.0,0.0,2585.5,23.0,,5664.0,0.08333333333333333,10.0,0.9166666666666666,1,1,22.0,0.0,0.0,0,1,1.0,0.0,1.0,4.0,103.0,-1.0,8.0,90.0,111.0,111.0,90.0,104,117.5,115.0,78.0,-0.23404255319148937,0.07692307692307693,0,0,-0.009615384615384616,0,0,4977.5,0.0013528544291141773,0.0,0.0,0.0,1.0
uik7aoor,wffepf9u,5c7e4638-30e0-4888-990f-24f3d564c836,4e3199a4-5b9d-45d0-980a-96571662a0a8,0,0,0,3,5134.0,3800.0,0.0,0.0,4469.5,5.0,,5074.0,0.3333333333333333,8.0,0.46666666666666673,1,1,44.0,0.0,1.0,1,1,0.0,3.0,-3.0,4.0,103.0,-1.0,8.0,90.0,111.0,111.0,90.0,104,117.5,115.0,78.0,-0.23404255319148937,0.07692307692307693,0,0,-0.009615384615384616,0,0,4989.5,0.0013528544291141773,0.0,0.0,0.0,1.0
uik7aoor,b2sjpg82,418c69c6-ec34-43cb-8592-f2fd1b6fcf4f,3f6f9d47-f2e6-44f6-8da9-2c8a16a3df63,1,1,0,3,5772.0,2600.0,0.0,0.0,2836.0,21.0,1.0,5702.0,0.5833333333333334,3.0,-0.2833333333333334,3,0,22.0,0.0,0.0,1,1,0.0,0.0,0.0,4.0,96.25,-7.75,7.75,100.0,100.0,100.0,90.0,104,170.0,150.0,120.0,-0.4117647058823529,0.07451923076923077,0,0,-0.07451923076923077,0,0,5020.0,0.0027119576084783043,0.0,0.0,1.0,0.0
uik7aoor,juhy06e8,418c69c6-ec34-43cb-8592-f2fd1b6fcf4f,e35674dc-ec96-4955-9641-275f1f5a2902,1,1,0,3,4773.0,3800.0,0.0,0.0,4244.0,7.0,0.0,4693.0,0.6666666666666666,8.0,0.13333333333333341,1,1,66.0,0.0,0.0,1,1,0.0,2.0,-2.0,4.0,96.25,-7.75,7.75,100.0,100.0,100.0,90.0,104,170.0,150.0,120.0,-0.4117647058823529,0.07451923076923077,0,0,-0.07451923076923077,0,0,4972.0,0.0027119576084783043,0.0,0.0,0.0,1.0
uik7aoor,hliggtnp,418c69c6-ec34-43cb-8592-f2fd1b6fcf4f,fde48bd3-7bd3-4e77-a95f-25abeea55ed0,1,1,0,3,5676.0,2600.0,0.0,0.0,3032.0,19.0,0.0,5556.0,1.0,3.0,-0.7,3,1,33.0,1.0,1.0,1,1,0.0,0.0,0.0,4.0,96.25,-7.75,7.75,100.0,100.0,100.0,90.0,104,170.0,150.0,120.0,-0.4117647058823529,0.07451923076923077,0,0,-0.07451923076923077,0,0,5008.0,0.0027119576084783043,0.0,1.0,0.0,0.0
uik7aoor,7y6562pk,418c69c6-ec34-43cb-8592-f2fd1b6fcf4f,022bbf5d-3d6e-47c2-9a2a-66d712d45701,1,1,0,3,4817.0,3800.0,0.0,0.0,3986.0,10.0,1.0,4787.0,0.25,9.0,0.65,1,1,45.0,0.0,1.0,0,1,0.0,0.0,0.0,4.0,96.25,-7.75,7.75,100.0,100.0,100.0,90.0,104,170.0,150.0,120.0,-0.4117647058823529,0.07451923076923077,0,0,-0.07451923076923077,0,0,5026.0,0.0027119576084783043,0.0,0.0,1.0,0.0
uik7aoor,lk5oyxpy,418c69c6-ec34-43cb-8592-f2fd1b6fcf4f,376885f3-c47c-49f0-a0be-9a38c1b06b80,1,1,0,3,4459.0,2600.0,90.0,4.0,2658.0,22.0,0.0,4419.0,0.3333333333333333,10.0,0.6666666666666667,1,0,33.0,1.0,0.0,1,1,1.0,0.0,1.0,4.0,96.25,-7.75,7.75,100.0,100.0,100.0,90.0,104,170.0,150.0,120.0,-0.4117647058823529,0.07451923076923077,0,0,-0.07451923076923077,0,0,4946.0,0.0027119576084783043,0.0,0.0,0.0,1.0
uik7aoor,tgar6z2d,418c69c6-ec34-43cb-8592-f2fd1b6fcf4f,9f70b144-bb13-4260-831f-f9cb21838f0b,1,1,0,3,4759.0,3800.0,0.0,0.0,3651.0,13.0,1.0,4699.0,0.5,9.0,0.4,4,1,22.0,0.0,1.0,1,1,2.0,0.0,2.0,4.0,96.25,-7.75,7.75,100.0,100.0,100.0,90.0,104,170.0,150.0,120.0,-0.4117647058823529,0.07451923076923077,0,0,-0.07451923076923077,0,0,5003.0,0.0027119576084783043,0.0,0.0,0.0,1.0
uik7aoor,z3reux71,418c69c6-ec34-43cb-8592-f2fd1b6fcf4f,9d53611f-f803-450c-bed2-ad0697c26298,1,1,0,3,5706.0,2600.0,99.0,5.0,3151.0,18.0,0.0,5636.0,0.5833333333333334,9.0,0.31666666666666665,1,1,21.0,0.0,0.0,0,1,0.0,1.0,-1.0,4.0,96.25,-7.75,7.75,100.0,100.0,100.0,90.0,104,170.0,150.0,120.0,-0.4117647058823529,0.07451923076923077,0,0,-0.07451923076923077,0,0,5023.0,0.0027119576084783043,0.0,0.0,0.0,1.0
uik7aoor,a12rmbju,418c69c6-ec34-43cb-8592-f2fd1b6fcf4f,d08bcb2b-8529-4fb2-8df1-d0ba2880bbed,1,1,0,3,5027.0,3800.0,0.0,0.0,3970.0,10.0,1.0,4907.0,1.0,4.0,-0.6,2,0,23.0,1.0,1.0,1,1,1.0,1.0,0.0,4.0,96.25,-7.75,7.75,100.0,100.0,100.0,90.0,104,170.0,150.0,120.0,-0.4117647058823529,0.07451923076923077,0,0,-0.07451923076923077,0,0,5010.0,0.0027119576084783043,0.0,0.0,0.0,1.0
uik7aoor,nwrelnt3,5c7e4638-30e0-4888-990f-24f3d564c836,7101c7b2-cced-4f23-8b1e-af06300a3134,0,0,0,4,5638.0,2600.0,,,3342.0,20.0,,5578.0,0.3333333333333333,8.0,0.46666666666666673,2,0,33.0,0.0,1.0,1,1,0.0,0.0,0.0,5.0,83.5,-12.5,12.5,78.0,85.0,89.0,78.0,96,90.0,117.5,69.0,-0.1333333333333333,0.13020833333333334,0,0,-0.13020833333333334,0,0,5262.0,0.008181938814900598,0.0,0.0,0.0,1.0
uik7aoor,jyza2hen,5c7e4638-30e0-4888-990f-24f3d564c836,be95f527-5ad3-4c59-b86e-16b055696e7d,0,0,0,4,4939.0,3800.0,,,4320.0,8.0,,4789.0,0.9166666666666666,10.0,0.08333333333333337,1,1,23.0,0.0,1.0,1,1,0.0,2.0,-2.0,5.0,83.5,-12.5,12.5,78.0,85.0,89.0,78.0,96,90.0,117.5,69.0,-0.1333333333333333,0.13020833333333334,0,0,-0.13020833333333334,0,0,5088.0,0.008181938814900598,0.0,0.0,0.0,1.0
uik7aoor,8hcohaqe,5c7e4638-30e0-4888-990f-24f3d564c836,a9a9bfc8-0b2a-4983-bcf0-4b86c657dd86,0,0,0,4,4900.0,2600.0,,,3398.5,19.0,,4720.0,1.0,2.0,-0.8,2,1,22.0,0.0,0.0,0,1,1.0,1.0,0.0,5.0,83.5,-12.5,12.5,78.0,85.0,89.0,78.0,96,90.0,117.5,69.0,-0.1333333333333333,0.13020833333333334,0,0,-0.13020833333333334,0,0,5222.5,0.008181938814900598,0.0,1.0,0.0,0.0
uik7aoor,4emhkmm9,5c7e4638-30e0-4888-990f-24f3d564c836,78864939-4723-4d4e-a310-1733979e65ba,0,0,0,4,5371.0,3800.0,,,4251.0,9.0,,5301.0,0.25,10.0,0.75,1,0,45.0,0.0,1.0,1,1,0.0,0.0,0.0,5.0,83.5,-12.5,12.5,78.0,85.0,89.0,78.0,96,90.0,117.5,69.0,-0.1333333333333333,0.13020833333333334,0,0,-0.13020833333333334,0,0,5115.0,0.008181938814900598,0.0,1.0,0.0,0.0
uik7aoor,gfuuq2ww,5c7e4638-30e0-4888-990f-24f3d564c836,f4139a7f-b72e-4c9e-b9f8-776ff8a34dc9,0,0,0,4,4482.0,2600.0,,,3162.0,22.0,,4462.0,0.16666666666666666,3.0,0.13333333333333333,3,1,19.0,0.0,0.0,1,1,0.0,1.0,-1.0,5.0,83.5,-12.5,12.5,78.0,85.0,89.0,78.0,96,90.0,117.5,69.0,-0.1333333333333333,0.13020833333333334,0,0,-0.13020833333333334,0,0,5274.0,0.008181938814900598,0.0,0.0,0.0,1.0
uik7aoor,cl09qtj4,5c7e4638-30e0-4888-990f-24f3d564c836,ce2794fe-8d67-4dc5-a1e4-fda7496f0027,0,0,0,4,4825.0,3800.0,,,4001.0,12.0,,4715.0,0.9166666666666666,1.0,-0.8166666666666667,5,0,44.0,0.0,0.0,1,1,1.0,0.0,1.0,5.0,83.5,-12.5,12.5,78.0,85.0,89.0,78.0,96,90.0,117.5,69.0,-0.1333333333333333,0.13020833333333334,0,0,-0.13020833333333334,0,0,5153.0,0.008181938814900598,0.0,0.0,1.0,0.0
uik7aoor,2i53nqi2,5c7e4638-30e0-4888-990f-24f3d564c836,336243e5-56a5-47f6-9862-1a9c250841e8,0,0,0,4,5674.0,2600.0,,,3045.5,23.0,,5664.0,0.08333333333333333,10.0,0.9166666666666666,1,1,22.0,0.0,0.0,0,1,0.0,0.0,0.0,5.0,83.5,-12.5,12.5,78.0,85.0,89.0,78.0,96,90.0,117.5,69.0,-0.1333333333333333,0.13020833333333334,0,0,-0.13020833333333334,0,0,5253.5,0.008181938814900598,0.0,0.0,0.0,1.0
uik7aoor,wffepf9u,5c7e4638-30e0-4888-990f-24f3d564c836,4e3199a4-5b9d-45d0-980a-96571662a0a8,0,0,0,4,5134.0,3800.0,,,4408.0,7.0,,5074.0,0.3333333333333333,8.0,0.46666666666666673,1,1,44.0,0.0,1.0,1,1,3.0,1.0,2.0,5.0,83.5,-12.5,12.5,78.0,85.0,89.0,78.0,96,90.0,117.5,69.0,-0.1333333333333333,0.13020833333333334,0,0,-0.13020833333333334,0,0,5080.0,0.008181938814900598,0.0,0.0,0.0,1.0
uik7aoor,b2sjpg82,418c69c6-ec34-43cb-8592-f2fd1b6fcf4f,3f6f9d47-f2e6-44f6-8da9-2c8a16a3df63,1,1,0,4,5772.0,2600.0,,,3256.0,21.0,1.0,5702.0,0.5833333333333334,3.0,-0.2833333333333334,3,0,22.0,0.0,0.0,1,1,0.0,0.0,0.0,2.0,125.0,29.0,29.0,120.0,130.0,130.0,120.0,96,100.0,170.0,90.0,0.19999999999999996,0.3020833333333333,0,0,0.3020833333333333,0,0,5272.0,0.006411648330438139,0.0,0.0,1.0,0.0
uik7aoor,juhy06e8,418c69c6-ec34-43cb-8592-f2fd1b6fcf4f,e35674dc-ec96-4955-9641-275f1f5a2902,1,1,0,4,4773.0,3800.0,,,4504.0,6.0,0.0,4693.0,0.6666666666666666,8.0,0.13333333333333341,1,1,66.0,0.0,0.0,1,1,0.0,1.0,-1.0,2.0,125.0,29.0,29.0,120.0,130.0,130.0,120.0,96,100.0,170.0,90.0,0.19999999999999996,0.3020833333333333,0,0,0.3020833333333333,0,0,5080.0,0.006411648330438139,0.0,0.0,0.0,1.0
uik7aoor,hliggtnp,418c69c6-ec34-43cb-8592-f2fd1b6fcf4f,fde48bd3-7bd3-4e77-a95f-25abeea55ed0,1,1,0,4,5676.0,2600.0,,,3412.0,19.0,0.0,5556.0,1.0,3.0,-0.7,3,1,33.0,1.0,1.0,1,1,0.0,0.0,0.0,2.0,125.0,29.0,29.0,120.0,130.0,130.0,120.0,96,100.0,170.0,90.0,0.19999999999999996,0.3020833333333333,0,0,0.3020833333333333,0,0,5236.0,0.006411648330438139,0.0,1.0,0.0,0.0
uik7aoor,7y6562pk,418c69c6-ec34-43cb-8592-f2fd1b6fcf4f,022bbf5d-3d6e-47c2-9a2a-66d712d45701,1,1,0,4,4817.0,3800.0,,,4186.0,10.0,1.0,4787.0,0.25,9.0,0.65,1,1,45.0,0.0,1.0,0,1,0.0,0.0,0.0,2.0,125.0,29.0,29.0,120.0,130.0,130.0,120.0,96,100.0,170.0,90.0,0.19999999999999996,0.3020833333333333,0,0,0.3020833333333333,0,0,5146.0,0.006411648330438139,0.0,0.0,1.0,0.0
uik7aoor,lk5oyxpy,418c69c6-ec34-43cb-8592-f2fd1b6fcf4f,376885f3-c47c-49f0-a0be-9a38c1b06b80,1,1,0,4,4459.0,2600.0,,,2968.0,23.0,0.0,4419.0,0.3333333333333333,10.0,0.6666666666666667,1,0,33.0,1.0,0.0,1,1,1.0,0.0,1.0,2.0,125.0,29.0,29.0,120.0,130.0,130.0,120.0,96,100.0,170.0,90.0,0.19999999999999996,0.3020833333333333,0,0,0.3020833333333333,0,0,5176.0,0.006411648330438139,0.0,0.0,0.0,1.0
uik7aoor,tgar6z2d,418c69c6-ec34-43cb-8592-f2fd1b6fcf4f,9f70b144-bb13-4260-831f-f9cb21838f0b,1,1,0,4,4759.0,3800.0,,,3911.0,13.0,1.0,4699.0,0.5,9.0,0.4,4,1,22.0,0.0,1.0,1,1,0.0,0.0,0.0,2.0,125.0,29.0,29.0,120.0,130.0,130.0,120.0,96,100.0,170.0,90.0,0.19999999999999996,0.3020833333333333,0,0,0.3020833333333333,0,0,5159.0,0.006411648330438139,0.0,0.0,0.0,1.0
uik7aoor,z3reux71,418c69c6-ec34-43cb-8592-f2fd1b6fcf4f,9d53611f-f803-450c-bed2-ad0697c26298,1,1,0,4,5706.0,2600.0,,,3511.0,18.0,0.0,5636.0,0.5833333333333334,9.0,0.31666666666666665,1,1,21.0,0.0,0.0,0,1,0.0,0.0,0.0,2.0,125.0,29.0,29.0,120.0,130.0,130.0,120.0,96,100.0,170.0,90.0,0.19999999999999996,0.3020833333333333,0,0,0.3020833333333333,0,0,5239.0,0.006411648330438139,0.0,0.0,0.0,1.0
uik7aoor,a12rmbju,418c69c6-ec34-43cb-8592-f2fd1b6fcf4f,d08bcb2b-8529-4fb2-8df1-d0ba2880bbed,1,1,0,4,5027.0,3800.0,,,4180.0,10.0,1.0,4907.0,1.0,4.0,-0.6,2,0,23.0,1.0,1.0,1,1,1.0,1.0,0.0,2.0,125.0,29.0,29.0,120.0,130.0,130.0,120.0,96,100.0,170.0,90.0,0.19999999999999996,0.3020833333333333,0,0,0.3020833333333333,0,0,5140.0,0.006411648330438139,0.0,0.0,0.0,1.0
uik7aoor,nwrelnt3,5c7e4638-30e0-4888-990f-24f3d564c836,7101c7b2-cced-4f23-8b1e-af06300a3134,0,0,0,5,5638.0,2600.0,,,3742.0,20.0,,5578.0,0.3333333333333333,8.0,0.46666666666666673,2,0,33.0,0.0,1.0,1,1,0.0,0.0,0.0,4.0,74.75,-13.25,13.25,69.0,80.0,80.0,69.0,88,78.0,90.0,88.0,-0.11538461538461542,0.15056818181818182,0,0,-0.15056818181818182,0,0,5502.0,0.016105903749300505,0.0,0.0,0.0,1.0
uik7aoor,jyza2hen,5c7e4638-30e0-4888-990f-24f3d564c836,be95f527-5ad3-4c59-b86e-16b055696e7d,0,0,0,5,4939.0,3800.0,,,4405.0,9.0,,4789.0,0.9166666666666666,10.0,0.08333333333333337,1,1,23.0,0.0,1.0,1,1,1.0,0.0,1.0,4.0,74.75,-13.25,13.25,69.0,80.0,80.0,69.0,88,78.0,90.0,88.0,-0.11538461538461542,0.15056818181818182,0,0,-0.15056818181818182,0,0,5197.0,0.016105903749300505,0.0,0.0,0.0,1.0
uik7aoor,8hcohaqe,5c7e4638-30e0-4888-990f-24f3d564c836,a9a9bfc8-0b2a-4983-bcf0-4b86c657dd86,0,0,0,5,4900.0,2600.0,,,3783.5,19.0,,4720.0,1.0,2.0,-0.8,2,1,22.0,0.0,0.0,0,1,1.0,1.0,0.0,4.0,74.75,-13.25,13.25,69.0,80.0,80.0,69.0,88,78.0,90.0,88.0,-0.11538461538461542,0.15056818181818182,0,0,-0.15056818181818182,0,0,5455.5,0.016105903749300505,0.0,1.0,0.0,0.0
uik7aoor,4emhkmm9,5c7e4638-30e0-4888-990f-24f3d564c836,78864939-4723-4d4e-a310-1733979e65ba,0,0,0,5,5371.0,3800.0,,,4362.0,10.0,,5301.0,0.25,10.0,0.75,1,0,45.0,0.0,1.0,1,1,1.0,0.0,1.0,4.0,74.75,-13.25,13.25,69.0,80.0,80.0,69.0,88,78.0,90.0,88.0,-0.11538461538461542,0.15056818181818182,0,0,-0.15056818181818182,0,0,5242.0,0.016105903749300505,0.0,1.0,0.0,0.0
uik7aoor,gfuuq2ww,5c7e4638-30e0-4888-990f-24f3d564c836,f4139a7f-b72e-4c9e-b9f8-776ff8a34dc9,0,0,0,5,4482.0,2600.0,,,3602.0,22.0,,4462.0,0.16666666666666666,3.0,0.13333333333333333,3,1,19.0,0.0,0.0,1,1,0.0,0.0,0.0,4.0,74.75,-13.25,13.25,69.0,80.0,80.0,69.0,88,78.0,90.0,88.0,-0.11538461538461542,0.15056818181818182,0,0,-0.15056818181818182,0,0,5538.0,0.016105903749300505,0.0,0.0,0.0,1.0
uik7aoor,cl09qtj4,5c7e4638-30e0-4888-990f-24f3d564c836,ce2794fe-8d67-4dc5-a1e4-fda7496f0027,0,0,0,5,4825.0,3800.0,,,4161.0,13.0,,4715.0,0.9166666666666666,1.0,-0.8166666666666667,5,0,44.0,0.0,0.0,1,1,1.0,0.0,1.0,4.0,74.75,-13.25,13.25,69.0,80.0,80.0,69.0,88,78.0,90.0,88.0,-0.11538461538461542,0.15056818181818182,0,0,-0.15056818181818182,0,0,5305.0,0.016105903749300505,0.0,0.0,1.0,0.0
uik7aoor,2i53nqi2,5c7e4638-30e0-4888-990f-24f3d564c836,336243e5-56a5-47f6-9862-1a9c250841e8,0,0,0,5,5674.0,2600.0,,,3505.5,23.0,,5664.0,0.08333333333333333,10.0,0.9166666666666666,1,1,22.0,0.0,0.0,0,1,0.0,0.0,0.0,4.0,74.75,-13.25,13.25,69.0,80.0,80.0,69.0,88,78.0,90.0,88.0,-0.11538461538461542,0.15056818181818182,0,0,-0.15056818181818182,0,0,5529.5,0.016105903749300505,0.0,0.0,0.0,1.0
uik7aoor,wffepf9u,5c7e4638-30e0-4888-990f-24f3d564c836,4e3199a4-5b9d-45d0-980a-96571662a0a8,0,0,0,5,5134.0,3800.0,,,4767.0,4.0,,5074.0,0.3333333333333333,8.0,0.46666666666666673,1,1,44.0,0.0,1.0,1,1,0.0,3.0,-3.0,4.0,74.75,-13.25,13.25,69.0,80.0,80.0,69.0,88,78.0,90.0,88.0,-0.11538461538461542,0.15056818181818182,0,0,-0.15056818181818182,0,0,5119.0,0.016105903749300505,0.0,0.0,0.0,1.0
uik7aoor,b2sjpg82,418c69c6-ec34-43cb-8592-f2fd1b6fcf4f,3f6f9d47-f2e6-44f6-8da9-2c8a16a3df63,1,1,0,5,5772.0,2600.0,,,3766.0,20.0,1.0,5702.0,0.5833333333333334,3.0,-0.2833333333333334,3,0,22.0,0.0,0.0,1,1,0.0,1.0,-1.0,5.0,104.0,16.0,16.0,90.0,120.0,130.0,90.0,88,120.0,100.0,80.0,-0.25,0.18181818181818182,0,0,0.18181818181818182,0,0,5526.0,0.013168019026301063,0.0,0.0,1.0,0.0
uik7aoor,juhy06e8,418c69c6-ec34-43cb-8592-f2fd1b6fcf4f,e35674dc-ec96-4955-9641-275f1f5a2902,1,1,0,5,4773.0,3800.0,,,4654.0,6.0,0.0,4693.0,0.6666666666666666,8.0,0.13333333333333341,1,1,66.0,0.0,0.0,1,1,1.0,1.0,0.0,5.0,104.0,16.0,16.0,90.0,120.0,130.0,90.0,88,120.0,100.0,80.0,-0.25,0.18181818181818182,0,0,0.18181818181818182,0,0,5182.0,0.013168019026301063,0.0,0.0,0.0,1.0
uik7aoor,hliggtnp,418c69c6-ec34-43cb-8592-f2fd1b6fcf4f,fde48bd3-7bd3-4e77-a95f-25abeea55ed0,1,1,0,5,5676.0,2600.0,,,3972.0,17.0,0.0,5556.0,1.0,3.0,-0.7,3,1,33.0,1.0,1.0,1,1,0.0,2.0,-2.0,5.0,104.0,16.0,16.0,90.0,120.0,130.0,90.0,88,120.0,100.0,80.0,-0.25,0.18181818181818182,0,0,0.18181818181818182,0,0,5468.0,0.013168019026301063,0.0,1.0,0.0,0.0
uik7aoor,7y6562pk,418c69c6-ec34-43cb-8592-f2fd1b6fcf4f,022bbf5d-3d6e-47c2-9a2a-66d712d45701,1,1,0,5,4817.0,3800.0,,,4266.0,11.0,1.0,4787.0,0.25,9.0,0.65,1,1,45.0,0.0,1.0,0,1,1.0,0.0,1.0,5.0,104.0,16.0,16.0,90.0,120.0,130.0,90.0,88,120.0,100.0,80.0,-0.25,0.18181818181818182,0,0,0.18181818181818182,0,0,5234.0,0.013168019026301063,0.0,0.0,1.0,0.0
uik7aoor,lk5oyxpy,418c69c6-ec34-43cb-8592-f2fd1b6fcf4f,376885f3-c47c-49f0-a0be-9a38c1b06b80,1,1,0,5,4459.0,2600.0,,,3428.0,23.0,0.0,4419.0,0.3333333333333333,10.0,0.6666666666666667,1,0,33.0,1.0,0.0,1,1,0.0,0.0,0.0,5.0,104.0,16.0,16.0,90.0,120.0,130.0,90.0,88,120.0,100.0,80.0,-0.25,0.18181818181818182,0,0,0.18181818181818182,0,0,5452.0,0.013168019026301063,0.0,0.0,0.0,1.0
uik7aoor,tgar6z2d,418c69c6-ec34-43cb-8592-f2fd1b6fcf4f,9f70b144-bb13-4260-831f-f9cb21838f0b,1,1,0,5,4759.0,3800.0,,,3951.0,15.0,1.0,4699.0,0.5,9.0,0.4,4,1,22.0,0.0,1.0,1,1,2.0,0.0,2.0,5.0,104.0,16.0,16.0,90.0,120.0,130.0,90.0,88,120.0,100.0,80.0,-0.25,0.18181818181818182,0,0,0.18181818181818182,0,0,5271.0,0.013168019026301063,0.0,0.0,0.0,1.0
uik7aoor,z3reux71,418c69c6-ec34-43cb-8592-f2fd1b6fcf4f,9d53611f-f803-450c-bed2-ad0697c26298,1,1,0,5,5706.0,2600.0,,,3911.0,18.0,0.0,5636.0,0.5833333333333334,9.0,0.31666666666666665,1,1,21.0,0.0,0.0,0,1,1.0,1.0,0.0,5.0,104.0,16.0,16.0,90.0,120.0,130.0,90.0,88,120.0,100.0,80.0,-0.25,0.18181818181818182,0,0,0.18181818181818182,0,0,5495.0,0.013168019026301063,0.0,0.0,0.0,1.0
uik7aoor,a12rmbju,418c69c6-ec34-43cb-8592-f2fd1b6fcf4f,d08bcb2b-8529-4fb2-8df1-d0ba2880bbed,1,1,0,5,5027.0,3800.0,,,4380.0,10.0,1.0,4907.0,1.0,4.0,-0.6,2,0,23.0,1.0,1.0,1,1,0.0,0.0,0.0,5.0,104.0,16.0,16.0,90.0,120.0,130.0,90.0,88,120.0,100.0,80.0,-0.25,0.18181818181818182,0,0,0.18181818181818182,0,0,5260.0,0.013168019026301063,0.0,0.0,0.0,1.0
uik7aoor,nwrelnt3,5c7e4638-30e0-4888-990f-24f3d564c836,7101c7b2-cced-4f23-8b1e-af06300a3134,0,0,0,6,5638.0,2600.0,99.0,5.0,3734.0,21.0,,5578.0,0.3333333333333333,8.0,0.46666666666666673,2,0,33.0,0.0,1.0,1,1,1.0,0.0,1.0,5.0,78.6,-1.4,5.4,88.0,65.0,88.0,65.0,80,69.0,78.0,72.0,0.2753623188405796,0.0675,0,0,-0.01750000000000007,0,0,5414.0,0.013317062818336164,0.0,0.0,0.0,1.0
uik7aoor,jyza2hen,5c7e4638-30e0-4888-990f-24f3d564c836,be95f527-5ad3-4c59-b86e-16b055696e7d,0,0,0,6,4939.0,3800.0,0.0,0.0,4441.0,9.0,,4789.0,0.9166666666666666,10.0,0.08333333333333337,1,1,23.0,0.0,1.0,1,1,0.0,0.0,0.0,5.0,78.6,-1.4,5.4,88.0,65.0,88.0,65.0,80,69.0,78.0,72.0,0.2753623188405796,0.0675,0,0,-0.01750000000000007,0,0,5161.0,0.013317062818336164,0.0,0.0,0.0,1.0
uik7aoor,8hcohaqe,5c7e4638-30e0-4888-990f-24f3d564c836,a9a9bfc8-0b2a-4983-bcf0-4b86c657dd86,0,0,0,6,4900.0,2600.0,0.0,0.0,3941.5,18.0,,4720.0,1.0,2.0,-0.8,2,1,22.0,0.0,0.0,0,1,0.0,1.0,-1.0,5.0,78.6,-1.4,5.4,88.0,65.0,88.0,65.0,80,69.0,78.0,72.0,0.2753623188405796,0.0675,0,0,-0.01750000000000007,0,0,5381.5,0.013317062818336164,0.0,1.0,0.0,0.0
uik7aoor,4emhkmm9,5c7e4638-30e0-4888-990f-24f3d564c836,78864939-4723-4d4e-a310-1733979e65ba,0,0,0,6,5371.0,3800.0,0.0,0.0,4469.0,9.0,,5301.0,0.25,10.0,0.75,1,0,45.0,0.0,1.0,1,1,1.0,2.0,-1.0,5.0,78.6,-1.4,5.4,88.0,65.0,88.0,65.0,80,69.0,78.0,72.0,0.2753623188405796,0.0675,0,0,-0.01750000000000007,0,0,5189.0,0.013317062818336164,0.0,1.0,0.0,0.0
uik7aoor,gfuuq2ww,5c7e4638-30e0-4888-990f-24f3d564c836,f4139a7f-b72e-4c9e-b9f8-776ff8a34dc9,0,0,0,6,4482.0,2600.0,0.0,0.0,3690.0,22.0,,4462.0,0.16666666666666666,3.0,0.13333333333333333,3,1,19.0,0.0,0.0,1,1,0.0,0.0,0.0,5.0,78.6,-1.4,5.4,88.0,65.0,88.0,65.0,80,69.0,78.0,72.0,0.2753623188405796,0.0675,0,0,-0.01750000000000007,0,0,5450.0,0.013317062818336164,0.0,0.0,0.0,1.0
uik7aoor,cl09qtj4,5c7e4638-30e0-4888-990f-24f3d564c836,ce2794fe-8d67-4dc5-a1e4-fda7496f0027,0,0,0,6,4825.0,3800.0,0.0,0.0,4139.0,14.0,,4715.0,0.9166666666666666,1.0,-0.8166666666666667,5,0,44.0,0.0,0.0,1,1,2.0,1.0,1.0,5.0,78.6,-1.4,5.4,88.0,65.0,88.0,65.0,80,69.0,78.0,72.0,0.2753623188405796,0.0675,0,0,-0.01750000000000007,0,0,5259.0,0.013317062818336164,0.0,0.0,1.0,0.0
uik7aoor,2i53nqi2,5c7e4638-30e0-4888-990f-24f3d564c836,336243e5-56a5-47f6-9862-1a9c250841e8,0,0,0,6,5674.0,2600.0,0.0,0.0,3597.5,23.0,,5664.0,0.08333333333333333,10.0,0.9166666666666666,1,1,22.0,0.0,0.0,0,1,0.0,0.0,0.0,5.0,78.6,-1.4,5.4,88.0,65.0,88.0,65.0,80,69.0,78.0,72.0,0.2753623188405796,0.0675,0,0,-0.01750000000000007,0,0,5437.5,0.013317062818336164,0.0,0.0,0.0,1.0
uik7aoor,wffepf9u,5c7e4638-30e0-4888-990f-24f3d564c836,4e3199a4-5b9d-45d0-980a-96571662a0a8,0,0,0,6,5134.0,3800.0,0.0,0.0,4796.0,4.0,,5074.0,0.3333333333333333,8.0,0.46666666666666673,1,1,44.0,0.0,1.0,1,1,1.0,1.0,0.0,5.0,78.6,-1.4,5.4,88.0,65.0,88.0,65.0,80,69.0,78.0,72.0,0.2753623188405796,0.0675,0,0,-0.01750000000000007,0,0,5116.0,0.013317062818336164,0.0,0.0,0.0,1.0
uik7aoor,b2sjpg82,418c69c6-ec34-43cb-8592-f2fd1b6fcf4f,3f6f9d47-f2e6-44f6-8da9-2c8a16a3df63,1,1,0,6,5772.0,2600.0,0.0,0.0,3764.0,21.0,1.0,5702.0,0.5833333333333334,3.0,-0.2833333333333334,3,0,22.0,0.0,0.0,1,1,1.0,0.0,1.0,4.0,81.0,1.0,1.0,80.0,82.0,82.0,80.0,80,90.0,120.0,77.0,-0.11111111111111116,0.0125,0,0,0.0125,0,0,5444.0,0.012915411410280549,0.0,0.0,1.0,0.0
uik7aoor,juhy06e8,418c69c6-ec34-43cb-8592-f2fd1b6fcf4f,e35674dc-ec96-4955-9641-275f1f5a2902,1,1,0,6,4773.0,3800.0,0.0,0.0,4678.0,6.0,0.0,4693.0,0.6666666666666666,8.0,0.13333333333333341,1,1,66.0,0.0,0.0,1,1,0.0,0.0,0.0,4.0,81.0,1.0,1.0,80.0,82.0,82.0,80.0,80,90.0,120.0,77.0,-0.11111111111111116,0.0125,0,0,0.0125,0,0,5158.0,0.012915411410280549,0.0,0.0,0.0,1.0
uik7aoor,hliggtnp,418c69c6-ec34-43cb-8592-f2fd1b6fcf4f,fde48bd3-7bd3-4e77-a95f-25abeea55ed0,1,1,0,6,5676.0,2600.0,0.0,0.0,4120.0,16.0,0.0,5556.0,1.0,3.0,-0.7,3,1,33.0,1.0,1.0,1,1,0.0,1.0,-1.0,4.0,81.0,1.0,1.0,80.0,82.0,82.0,80.0,80,90.0,120.0,77.0,-0.11111111111111116,0.0125,0,0,0.0125,0,0,5400.0,0.012915411410280549,0.0,1.0,0.0,0.0
uik7aoor,7y6562pk,418c69c6-ec34-43cb-8592-f2fd1b6fcf4f,022bbf5d-3d6e-47c2-9a2a-66d712d45701,1,1,0,6,4817.0,3800.0,0.0,0.0,4310.0,11.0,1.0,4787.0,0.25,9.0,0.65,1,1,45.0,0.0,1.0,0,1,0.0,0.0,0.0,4.0,81.0,1.0,1.0,80.0,82.0,82.0,80.0,80,90.0,120.0,77.0,-0.11111111111111116,0.0125,0,0,0.0125,0,0,5190.0,0.012915411410280549,0.0,0.0,1.0,0.0
uik7aoor,lk5oyxpy,418c69c6-ec34-43cb-8592-f2fd1b6fcf4f,376885f3-c47c-49f0-a0be-9a38c1b06b80,1,1,0,6,4459.0,2600.0,0.0,0.0,3520.0,23.0,0.0,4419.0,0.3333333333333333,10.0,0.6666666666666667,1,0,33.0,1.0,0.0,1,1,1.0,1.0,0.0,4.0,81.0,1.0,1.0,80.0,82.0,82.0,80.0,80,90.0,120.0,77.0,-0.11111111111111116,0.0125,0,0,0.0125,0,0,5360.0,0.012915411410280549,0.0,0.0,0.0,1.0
uik7aoor,tgar6z2d,418c69c6-ec34-43cb-8592-f2fd1b6fcf4f,9f70b144-bb13-4260-831f-f9cb21838f0b,1,1,0,6,4759.0,3800.0,99.0,3.0,3931.0,16.0,1.0,4699.0,0.5,9.0,0.4,4,1,22.0,0.0,1.0,1,1,1.0,0.0,1.0,4.0,81.0,1.0,1.0,80.0,82.0,82.0,80.0,80,90.0,120.0,77.0,-0.11111111111111116,0.0125,0,0,0.0125,0,0,5211.0,0.012915411410280549,0.0,0.0,0.0,1.0
uik7aoor,z3reux71,418c69c6-ec34-43cb-8592-f2fd1b6fcf4f,9d53611f-f803-450c-bed2-ad0697c26298,1,1,0,6,5706.0,2600.0,90.0,2.0,4063.0,18.0,0.0,5636.0,0.5833333333333334,9.0,0.31666666666666665,1,1,21.0,0.0,0.0,0,1,0.0,1.0,-1.0,4.0,81.0,1.0,1.0,80.0,82.0,82.0,80.0,80,90.0,120.0,77.0,-0.11111111111111116,0.0125,0,0,0.0125,0,0,5503.0,0.012915411410280549,0.0,0.0,0.0,1.0
uik7aoor,a12rmbju,418c69c6-ec34-43cb-8592-f2fd1b6fcf4f,d08bcb2b-8529-4fb2-8df1-d0ba2880bbed,1,1,0,6,5027.0,3800.0,0.0,0.0,4422.0,10.0,1.0,4907.0,1.0,4.0,-0.6,2,0,23.0,1.0,1.0,1,1,1.0,1.0,0.0,4.0,81.0,1.0,1.0,80.0,82.0,82.0,80.0,80,90.0,120.0,77.0,-0.11111111111111116,0.0125,0,0,0.0125,0,0,5222.0,0.012915411410280549,0.0,0.0,0.0,1.0
uik7aoor,nwrelnt3,5c7e4638-30e0-4888-990f-24f3d564c836,7101c7b2-cced-4f23-8b1e-af06300a3134,0,0,0,7,5638.0,2600.0,,,4224.0,20.0,,5578.0,0.3333333333333333,8.0,0.46666666666666673,2,0,33.0,0.0,1.0,1,1,1.0,1.0,0.0,3.0,76.0,4.0,5.333333333333333,72.0,86.0,86.0,70.0,72,88.0,69.0,68.0,-0.18181818181818177,0.07407407407407407,0,0,0.05555555555555555,0,0,5664.0,0.020974875746659977,0.0,0.0,0.0,1.0
uik7aoor,jyza2hen,5c7e4638-30e0-4888-990f-24f3d564c836,be95f527-5ad3-4c59-b86e-16b055696e7d,0,0,0,7,4939.0,3800.0,,,4549.0,10.0,,4789.0,0.9166666666666666,10.0,0.08333333333333337,1,1,23.0,0.0,1.0,1,1,1.0,0.0,1.0,3.0,76.0,4.0,5.333333333333333,72.0,86.0,86.0,70.0,72,88.0,69.0,68.0,-0.18181818181818177,0.07407407407407407,0,0,0.05555555555555555,0,0,5269.0,0.020974875746659977,0.0,0.0,0.0,1.0
uik7aoor,8hcohaqe,5c7e4638-30e0-4888-990f-24f3d564c836,a9a9bfc8-0b2a-4983-bcf0-4b86c657dd86,0,0,0,7,4900.0,2600.0,,,4389.5,17.0,,4720.0,1.0,2.0,-0.8,2,1,22.0,0.0,0.0,0,1,1.0,2.0,-1.0,3.0,76.0,4.0,5.333333333333333,72.0,86.0,86.0,70.0,72,88.0,69.0,68.0,-0.18181818181818177,0.07407407407407407,0,0,0.05555555555555555,0,0,5613.5,0.020974875746659977,0.0,1.0,0.0,0.0
uik7aoor,4emhkmm9,5c7e4638-30e0-4888-990f-24f3d564c836,78864939-4723-4d4e-a310-1733979e65ba,0,0,0,7,5371.0,3800.0,,,4649.0,9.0,,5301.0,0.25,10.0,0.75,1,0,45.0,0.0,1.0,1,1,0.0,0.0,0.0,3.0,76.0,4.0,5.333333333333333,72.0,86.0,86.0,70.0,72,88.0,69.0,68.0,-0.18181818181818177,0.07407407407407407,0,0,0.05555555555555555,0,0,5297.0,0.020974875746659977,0.0,1.0,0.0,0.0
uik7aoor,gfuuq2ww,5c7e4638-30e0-4888-990f-24f3d564c836,f4139a7f-b72e-4c9e-b9f8-776ff8a34dc9,0,0,0,7,4482.0,2600.0,,,4130.0,22.0,,4462.0,0.16666666666666666,3.0,0.13333333333333333,3,1,19.0,0.0,0.0,1,1,0.0,0.0,0.0,3.0,76.0,4.0,5.333333333333333,72.0,86.0,86.0,70.0,72,88.0,69.0,68.0,-0.18181818181818177,0.07407407407407407,0,0,0.05555555555555555,0,0,5714.0,0.020974875746659977,0.0,0.0,0.0,1.0
uik7aoor,cl09qtj4,5c7e4638-30e0-4888-990f-24f3d564c836,ce2794fe-8d67-4dc5-a1e4-fda7496f0027,0,0,0,7,4825.0,3800.0,,,4419.0,14.0,,4715.0,0.9166666666666666,1.0,-0.8166666666666667,5,0,44.0,0.0,0.0,1,1,0.0,0.0,0.0,3.0,76.0,4.0,5.333333333333333,72.0,86.0,86.0,70.0,72,88.0,69.0,68.0,-0.18181818181818177,0.07407407407407407,0,0,0.05555555555555555,0,0,5427.0,0.020974875746659977,0.0,0.0,1.0,0.0
uik7aoor,2i53nqi2,5c7e4638-30e0-4888-990f-24f3d564c836,336243e5-56a5-47f6-9862-1a9c250841e8,0,0,0,7,5674.0,2600.0,,,4057.5,23.0,,5664.0,0.08333333333333333,10.0,0.9166666666666666,1,1,22.0,0.0,0.0,0,1,0.0,0.0,0.0,3.0,76.0,4.0,5.333333333333333,72.0,86.0,86.0,70.0,72,88.0,69.0,68.0,-0.18181818181818177,0.07407407407407407,0,0,0.05555555555555555,0,0,5713.5,0.020974875746659977,0.0,0.0,0.0,1.0
uik7aoor,wffepf9u,5c7e4638-30e0-4888-990f-24f3d564c836,4e3199a4-5b9d-45d0-980a-96571662a0a8,0,0,0,7,5134.0,3800.0,,,4876.0,4.0,,5074.0,0.3333333333333333,8.0,0.46666666666666673,1,1,44.0,0.0,1.0,1,1,0.0,0.0,0.0,3.0,76.0,4.0,5.333333333333333,72.0,86.0,86.0,70.0,72,88.0,69.0,68.0,-0.18181818181818177,0.07407407407407407,0,0,0.05555555555555555,0,0,5164.0,0.020974875746659977,0.0,0.0,0.0,1.0
uik7aoor,b2sjpg82,418c69c6-ec34-43cb-8592-f2fd1b6fcf4f,3f6f9d47-f2e6-44f6-8da9-2c8a16a3df63,1,1,0,7,5772.0,2600.0,,,4264.0,20.0,1.0,5702.0,0.5833333333333334,3.0,-0.2833333333333334,3,0,22.0,0.0,0.0,1,1,0.0,1.0,-1.0,5.0,80.0,8.0,8.0,77.0,80.0,84.0,77.0,72,80.0,90.0,66.0,-0.03749999999999998,0.1111111111111111,0,0,0.1111111111111111,0,0,5704.0,0.01826923076923077,0.0,0.0,1.0,0.0
uik7aoor,juhy06e8,418c69c6-ec34-43cb-8592-f2fd1b6fcf4f,e35674dc-ec96-4955-9641-275f1f5a2902,1,1,0,7,4773.0,3800.0,,,4791.0,6.0,0.0,4693.0,0.6666666666666666,8.0,0.13333333333333341,1,1,66.0,0.0,0.0,1,1,1.0,1.0,0.0,5.0,80.0,8.0,8.0,77.0,80.0,84.0,77.0,72,80.0,90.0,66.0,-0.03749999999999998,0.1111111111111111,0,0,0.1111111111111111,0,0,5223.0,0.01826923076923077,0.0,0.0,0.0,1.0
uik7aoor,hliggtnp,418c69c6-ec34-43cb-8592-f2fd1b6fcf4f,fde48bd3-7bd3-4e77-a95f-25abeea55ed0,1,1,0,7,5676.0,2600.0,,,4440.0,16.0,0.0,5556.0,1.0,3.0,-0.7,3,1,33.0,1.0,1.0,1,1,0.0,0.0,0.0,5.0,80.0,8.0,8.0,77.0,80.0,84.0,77.0,72,80.0,90.0,66.0,-0.03749999999999998,0.1111111111111111,0,0,0.1111111111111111,0,0,5592.0,0.01826923076923077,0.0,1.0,0.0,0.0
uik7aoor,7y6562pk,418c69c6-ec34-43cb-8592-f2fd1b6fcf4f,022bbf5d-3d6e-47c2-9a2a-66d712d45701,1,1,0,7,4817.0,3800.0,,,4613.0,10.0,1.0,4787.0,0.25,9.0,0.65,1,1,45.0,0.0,1.0,0,1,1.0,2.0,-1.0,5.0,80.0,8.0,8.0,77.0,80.0,84.0,77.0,72,80.0,90.0,66.0,-0.03749999999999998,0.1111111111111111,0,0,0.1111111111111111,0,0,5333.0,0.01826923076923077,0.0,0.0,1.0,0.0
uik7aoor,lk5oyxpy,418c69c6-ec34-43cb-8592-f2fd1b6fcf4f,376885f3-c47c-49f0-a0be-9a38c1b06b80,1,1,0,7,4459.0,2600.0,,,3823.0,25.0,0.0,4419.0,0.3333333333333333,10.0,0.6666666666666667,1,0,33.0,1.0,0.0,1,1,2.0,0.0,2.0,5.0,80.0,8.0,8.0,77.0,80.0,84.0,77.0,72,80.0,90.0,66.0,-0.03749999999999998,0.1111111111111111,0,0,0.1111111111111111,0,0,5623.0,0.01826923076923077,0.0,0.0,0.0,1.0
uik7aoor,tgar6z2d,418c69c6-ec34-43cb-8592-f2fd1b6fcf4f,9f70b144-bb13-4260-831f-f9cb21838f0b,1,1,0,7,4759.0,3800.0,,,4172.0,17.0,1.0,4699.0,0.5,9.0,0.4,4,1,22.0,0.0,1.0,1,1,1.0,0.0,1.0,5.0,80.0,8.0,8.0,77.0,80.0,84.0,77.0,72,80.0,90.0,66.0,-0.03749999999999998,0.1111111111111111,0,0,0.1111111111111111,0,0,5396.0,0.01826923076923077,0.0,0.0,0.0,1.0
uik7aoor,z3reux71,418c69c6-ec34-43cb-8592-f2fd1b6fcf4f,9d53611f-f803-450c-bed2-ad0697c26298,1,1,0,7,5706.0,2600.0,,,4503.0,17.0,0.0,5636.0,0.5833333333333334,9.0,0.31666666666666665,1,1,21.0,0.0,0.0,0,1,0.0,1.0,-1.0,5.0,80.0,8.0,8.0,77.0,80.0,84.0,77.0,72,80.0,90.0,66.0,-0.03749999999999998,0.1111111111111111,0,0,0.1111111111111111,0,0,5727.0,0.01826923076923077,0.0,0.0,0.0,1.0
uik7aoor,a12rmbju,418c69c6-ec34-43cb-8592-f2fd1b6fcf4f,d08bcb2b-8529-4fb2-8df1-d0ba2880bbed,1,1,0,7,5027.0,3800.0,,,4622.0,10.0,1.0,4907.0,1.0,4.0,-0.6,2,0,23.0,1.0,1.0,1,1,0.0,0.0,0.0,5.0,80.0,8.0,8.0,77.0,80.0,84.0,77.0,72,80.0,90.0,66.0,-0.03749999999999998,0.1111111111111111,0,0,0.1111111111111111,0,0,5342.0,0.01826923076923077,0.0,0.0,0.0,1.0
uik7aoor,nwrelnt3,5c7e4638-30e0-4888-990f-24f3d564c836,7101c7b2-cced-4f23-8b1e-af06300a3134,0,0,0,8,5638.0,2600.0,,,4366.0,19.0,,5578.0,0.3333333333333333,8.0,0.46666666666666673,2,0,33.0,0.0,1.0,1,1,0.0,1.0,-1.0,6.0,65.0,1.0,1.6666666666666667,68.0,64.0,68.0,62.0,64,72.0,88.0,60.0,-0.05555555555555558,0.026041666666666668,0,0,0.015625,0,0,5582.0,0.017963176064441887,0.0,0.0,0.0,1.0
uik7aoor,jyza2hen,5c7e4638-30e0-4888-990f-24f3d564c836,be95f527-5ad3-4c59-b86e-16b055696e7d,0,0,0,8,4939.0,3800.0,,,4531.0,11.0,,4789.0,0.9166666666666666,10.0,0.08333333333333337,1,1,23.0,0.0,1.0,1,1,3.0,2.0,1.0,6.0,65.0,1.0,1.6666666666666667,68.0,64.0,68.0,62.0,64,72.0,88.0,60.0,-0.05555555555555558,0.026041666666666668,0,0,0.015625,0,0,5235.0,0.017963176064441887,0.0,0.0,0.0,1.0
uik7aoor,8hcohaqe,5c7e4638-30e0-4888-990f-24f3d564c836,a9a9bfc8-0b2a-4983-bcf0-4b86c657dd86,0,0,0,8,4900.0,2600.0,,,4457.5,17.0,,4720.0,1.0,2.0,-0.8,2,1,22.0,0.0,0.0,0,1,0.0,0.0,0.0,6.0,65.0,1.0,1.6666666666666667,68.0,64.0,68.0,62.0,64,72.0,88.0,60.0,-0.05555555555555558,0.026041666666666668,0,0,0.015625,0,0,5545.5,0.017963176064441887,0.0,1.0,0.0,0.0
uik7aoor,4emhkmm9,5c7e4638-30e0-4888-990f-24f3d564c836,78864939-4723-4d4e-a310-1733979e65ba,0,0,0,8,5371.0,3800.0,,,4685.0,10.0,,5301.0,0.25,10.0,0.75,1,0,45.0,0.0,1.0,1,1,0.0,0.0,0.0,6.0,65.0,1.0,1.6666666666666667,68.0,64.0,68.0,62.0,64,72.0,88.0,60.0,-0.05555555555555558,0.026041666666666668,0,0,0.015625,0,0,5325.0,0.017963176064441887,0.0,1.0,0.0,0.0
uik7aoor,gfuuq2ww,5c7e4638-30e0-4888-990f-24f3d564c836,f4139a7f-b72e-4c9e-b9f8-776ff8a34dc9,0,0,0,8,4482.0,2600.0,,,4217.0,22.0,,4462.0,0.16666666666666666,3.0,0.13333333333333333,3,1,19.0,0.0,0.0,1,1,1.0,1.0,0.0,6.0,65.0,1.0,1.6666666666666667,68.0,64.0,68.0,62.0,64,72.0,88.0,60.0,-0.05555555555555558,0.026041666666666668,0,0,0.015625,0,0,5625.0,0.017963176064441887,0.0,0.0,0.0,1.0
uik7aoor,cl09qtj4,5c7e4638-30e0-4888-990f-24f3d564c836,ce2794fe-8d67-4dc5-a1e4-fda7496f0027,0,0,0,8,4825.0,3800.0,,,4476.0,14.0,,4715.0,0.9166666666666666,1.0,-0.8166666666666667,5,0,44.0,0.0,0.0,1,1,1.0,1.0,0.0,6.0,65.0,1.0,1.6666666666666667,68.0,64.0,68.0,62.0,64,72.0,88.0,60.0,-0.05555555555555558,0.026041666666666668,0,0,0.015625,0,0,5372.0,0.017963176064441887,0.0,0.0,1.0,0.0
uik7aoor,2i53nqi2,5c7e4638-30e0-4888-990f-24f3d564c836,336243e5-56a5-47f6-9862-1a9c250841e8,0,0,0,8,5674.0,2600.0,,,4149.5,23.0,,5664.0,0.08333333333333333,10.0,0.9166666666666666,1,1,22.0,0.0,0.0,0,1,0.0,0.0,0.0,6.0,65.0,1.0,1.6666666666666667,68.0,64.0,68.0,62.0,64,72.0,88.0,60.0,-0.05555555555555558,0.026041666666666668,0,0,0.015625,0,0,5621.5,0.017963176064441887,0.0,0.0,0.0,1.0
uik7aoor,wffepf9u,5c7e4638-30e0-4888-990f-24f3d564c836,4e3199a4-5b9d-45d0-980a-96571662a0a8,0,0,0,8,5134.0,3800.0,,,4888.0,4.0,,5074.0,0.3333333333333333,8.0,0.46666666666666673,1,1,44.0,0.0,1.0,1,1,1.0,1.0,0.0,6.0,65.0,1.0,1.6666666666666667,68.0,64.0,68.0,62.0,64,72.0,88.0,60.0,-0.05555555555555558,0.026041666666666668,0,0,0.015625,0,0,5144.0,0.017963176064441887,0.0,0.0,0.0,1.0
uik7aoor,b2sjpg82,418c69c6-ec34-43cb-8592-f2fd1b6fcf4f,3f6f9d47-f2e6-44f6-8da9-2c8a16a3df63,1,1,0,8,5772.0,2600.0,,,4344.0,20.0,1.0,5702.0,0.5833333333333334,3.0,-0.2833333333333334,3,0,22.0,0.0,0.0,1,1,0.0,0.0,0.0,2.0,70.5,6.5,6.5,66.0,75.0,75.0,66.0,64,77.0,80.0,55.0,-0.1428571428571429,0.1015625,0,0,0.1015625,0,0,5624.0,0.01607948269513991,0.0,0.0,1.0,0.0
uik7aoor,juhy06e8,418c69c6-ec34-43cb-8592-f2fd1b6fcf4f,e35674dc-ec96-4955-9641-275f1f5a2902,1,1,0,8,4773.0,3800.0,,,4815.0,6.0,0.0,4693.0,0.6666666666666666,8.0,0.13333333333333341,1,1,66.0,0.0,0.0,1,1,0.0,0.0,0.0,2.0,70.5,6.5,6.5,66.0,75.0,75.0,66.0,64,77.0,80.0,55.0,-0.1428571428571429,0.1015625,0,0,0.1015625,0,0,5199.0,0.01607948269513991,0.0,0.0,0.0,1.0
uik7aoor,hliggtnp,418c69c6-ec34-43cb-8592-f2fd1b6fcf4f,fde48bd3-7bd3-4e77-a95f-25abeea55ed0,1,1,0,8,5676.0,2600.0,,,4570.0,16.0,0.0,5556.0,1.0,3.0,-0.7,3,1,33.0,1.0,1.0,1,1,0.0,1.0,-1.0,2.0,70.5,6.5,6.5,66.0,75.0,75.0,66.0,64,77.0,80.0,55.0,-0.1428571428571429,0.1015625,0,0,0.1015625,0,0,5594.0,0.01607948269513991,0.0,1.0,0.0,0.0
uik7aoor,7y6562pk,418c69c6-ec34-43cb-8592-f2fd1b6fcf4f,022bbf5d-3d6e-47c2-9a2a-66d712d45701,1,1,0,8,4817.0,3800.0,,,4653.0,10.0,1.0,4787.0,0.25,9.0,0.65,1,1,45.0,0.0,1.0,0,1,0.0,0.0,0.0,2.0,70.5,6.5,6.5,66.0,75.0,75.0,66.0,64,77.0,80.0,55.0,-0.1428571428571429,0.1015625,0,0,0.1015625,0,0,5293.0,0.01607948269513991,0.0,0.0,1.0,0.0
uik7aoor,lk5oyxpy,418c69c6-ec34-43cb-8592-f2fd1b6fcf4f,376885f3-c47c-49f0-a0be-9a38c1b06b80,1,1,0,8,4459.0,2600.0,,,3848.0,26.0,0.0,4419.0,0.3333333333333333,10.0,0.6666666666666667,1,0,33.0,1.0,0.0,1,1,1.0,0.0,1.0,2.0,70.5,6.5,6.5,66.0,75.0,75.0,66.0,64,77.0,80.0,55.0,-0.1428571428571429,0.1015625,0,0,0.1015625,0,0,5512.0,0.01607948269513991,0.0,0.0,0.0,1.0
uik7aoor,tgar6z2d,418c69c6-ec34-43cb-8592-f2fd1b6fcf4f,9f70b144-bb13-4260-831f-f9cb21838f0b,1,1,0,8,4759.0,3800.0,,,4240.0,17.0,1.0,4699.0,0.5,9.0,0.4,4,1,22.0,0.0,1.0,1,1,0.0,0.0,0.0,2.0,70.5,6.5,6.5,66.0,75.0,75.0,66.0,64,77.0,80.0,55.0,-0.1428571428571429,0.1015625,0,0,0.1015625,0,0,5328.0,0.01607948269513991,0.0,0.0,0.0,1.0
uik7aoor,z3reux71,418c69c6-ec34-43cb-8592-f2fd1b6fcf4f,9d53611f-f803-450c-bed2-ad0697c26298,1,1,0,8,5706.0,2600.0,,,4580.0,16.0,0.0,5636.0,0.5833333333333334,9.0,0.31666666666666665,1,1,21.0,0.0,0.0,0,1,1.0,1.0,0.0,2.0,70.5,6.5,6.5,66.0,75.0,75.0,66.0,64,77.0,80.0,55.0,-0.1428571428571429,0.1015625,0,0,0.1015625,0,0,5604.0,0.01607948269513991,0.0,0.0,0.0,1.0
uik7aoor,a12rmbju,418c69c6-ec34-43cb-8592-f2fd1b6fcf4f,d08bcb2b-8529-4fb2-8df1-d0ba2880bbed,1,1,0,8,5027.0,3800.0,,,4662.0,10.0,1.0,4907.0,1.0,4.0,-0.6,2,0,23.0,1.0,1.0,1,1,0.0,0.0,0.0,2.0,70.5,6.5,6.5,66.0,75.0,75.0,66.0,64,77.0,80.0,55.0,-0.1428571428571429,0.1015625,0,0,0.1015625,0,0,5302.0,0.01607948269513991,0.0,0.0,0.0,1.0
uik7aoor,nwrelnt3,5c7e4638-30e0-4888-990f-24f3d564c836,7101c7b2-cced-4f23-8b1e-af06300a3134,0,0,0,9,5638.0,2600.0,0.0,0.0,4747.0,19.0,,5578.0,0.3333333333333333,8.0,0.46666666666666673,2,0,33.0,0.0,1.0,1,1,1.0,1.0,0.0,5.0,62.2,6.2,6.2,60.0,63.0,64.0,60.0,56,68.0,72.0,65.0,-0.11764705882352944,0.11071428571428572,0,0,0.11071428571428577,0,0,5811.0,0.02541319088191997,0.0,0.0,0.0,1.0
uik7aoor,jyza2hen,5c7e4638-30e0-4888-990f-24f3d564c836,be95f527-5ad3-4c59-b86e-16b055696e7d,0,0,0,9,4939.0,3800.0,88.0,2.0,4753.0,11.0,,4789.0,0.9166666666666666,10.0,0.08333333333333337,1,1,23.0,0.0,1.0,1,1,1.0,1.0,0.0,5.0,62.2,6.2,6.2,60.0,63.0,64.0,60.0,56,68.0,72.0,65.0,-0.11764705882352944,0.11071428571428572,0,0,0.11071428571428577,0,0,5369.0,0.02541319088191997,0.0,0.0,0.0,1.0
uik7aoor,8hcohaqe,5c7e4638-30e0-4888-990f-24f3d564c836,a9a9bfc8-0b2a-4983-bcf0-4b86c657dd86,0,0,0,9,4900.0,2600.0,65.0,5.0,4734.5,18.0,,4720.0,1.0,2.0,-0.8,2,1,22.0,0.0,0.0,0,1,1.0,0.0,1.0,5.0,62.2,6.2,6.2,60.0,63.0,64.0,60.0,56,68.0,72.0,65.0,-0.11764705882352944,0.11071428571428572,0,0,0.11071428571428577,0,0,5742.5,0.02541319088191997,0.0,1.0,0.0,0.0
uik7aoor,4emhkmm9,5c7e4638-30e0-4888-990f-24f3d564c836,78864939-4723-4d4e-a310-1733979e65ba,0,0,0,9,5371.0,3800.0,0.0,0.0,4887.0,9.0,,5301.0,0.25,10.0,0.75,1,0,45.0,0.0,1.0,1,1,1.0,1.0,0.0,5.0,62.2,6.2,6.2,60.0,63.0,64.0,60.0,56,68.0,72.0,65.0,-0.11764705882352944,0.11071428571428572,0,0,0.11071428571428577,0,0,5391.0,0.02541319088191997,0.0,1.0,0.0,0.0
uik7aoor,gfuuq2ww,5c7e4638-30e0-4888-990f-24f3d564c836,f4139a7f-b72e-4c9e-b9f8-776ff8a34dc9,0,0,0,9,4482.0,2600.0,0.0,0.0,4719.0,21.0,,4462.0,0.16666666666666666,3.0,0.13333333333333333,3,1,19.0,0.0,0.0,1,1,0.0,1.0,-1.0,5.0,62.2,6.2,6.2,60.0,63.0,64.0,60.0,56,68.0,72.0,65.0,-0.11764705882352944,0.11071428571428572,0,0,0.11071428571428577,0,0,5895.0,0.02541319088191997,0.0,0.0,0.0,1.0
uik7aoor,cl09qtj4,5c7e4638-30e0-4888-990f-24f3d564c836,ce2794fe-8d67-4dc5-a1e4-fda7496f0027,0,0,0,9,4825.0,3800.0,0.0,0.0,4756.0,14.0,,4715.0,0.9166666666666666,1.0,-0.8166666666666667,5,0,44.0,0.0,0.0,1,1,0.0,0.0,0.0,5.0,62.2,6.2,6.2,60.0,63.0,64.0,60.0,56,68.0,72.0,65.0,-0.11764705882352944,0.11071428571428572,0,0,0.11071428571428577,0,0,5540.0,0.02541319088191997,0.0,0.0,1.0,0.0
uik7aoor,2i53nqi2,5c7e4638-30e0-4888-990f-24f3d564c836,336243e5-56a5-47f6-9862-1a9c250841e8,0,0,0,9,5674.0,2600.0,77.0,5.0,4669.5,22.0,,5664.0,0.08333333333333333,10.0,0.9166666666666666,1,1,22.0,0.0,0.0,0,1,0.0,1.0,-1.0,5.0,62.2,6.2,6.2,60.0,63.0,64.0,60.0,56,68.0,72.0,65.0,-0.11764705882352944,0.11071428571428572,0,0,0.11071428571428577,0,0,5901.5,0.02541319088191997,0.0,0.0,0.0,1.0
uik7aoor,wffepf9u,5c7e4638-30e0-4888-990f-24f3d564c836,4e3199a4-5b9d-45d0-980a-96571662a0a8,0,0,0,9,5134.0,3800.0,0.0,0.0,4904.0,5.0,,5074.0,0.3333333333333333,8.0,0.46666666666666673,1,1,44.0,0.0,1.0,1,1,1.0,0.0,1.0,5.0,62.2,6.2,6.2,60.0,63.0,64.0,60.0,56,68.0,72.0,65.0,-0.11764705882352944,0.11071428571428572,0,0,0.11071428571428577,0,0,5184.0,0.02541319088191997,0.0,0.0,0.0,1.0
uik7aoor,b2sjpg82,418c69c6-ec34-43cb-8592-f2fd1b6fcf4f,3f6f9d47-f2e6-44f6-8da9-2c8a16a3df63,1,1,0,9,5772.0,2600.0,0.0,0.0,4744.0,20.0,1.0,5702.0,0.5833333333333334,3.0,-0.2833333333333334,3,0,22.0,0.0,0.0,1,1,0.0,0.0,0.0,3.0,65.33333333333333,9.333333333333334,10.0,55.0,66.0,75.0,55.0,56,66.0,77.0,66.0,-0.16666666666666663,0.17857142857142858,0,0,0.16666666666666657,0,0,5864.0,0.02125880674217426,0.0,0.0,1.0,0.0
uik7aoor,juhy06e8,418c69c6-ec34-43cb-8592-f2fd1b6fcf4f,e35674dc-ec96-4955-9641-275f1f5a2902,1,1,0,9,4773.0,3800.0,0.0,0.0,4990.0,5.0,0.0,4693.0,0.6666666666666666,8.0,0.13333333333333341,1,1,66.0,0.0,0.0,1,1,0.0,1.0,-1.0,3.0,65.33333333333333,9.333333333333334,10.0,55.0,66.0,75.0,55.0,56,66.0,77.0,66.0,-0.16666666666666663,0.17857142857142858,0,0,0.16666666666666657,0,0,5270.0,0.02125880674217426,0.0,0.0,0.0,1.0
uik7aoor,hliggtnp,418c69c6-ec34-43cb-8592-f2fd1b6fcf4f,fde48bd3-7bd3-4e77-a95f-25abeea55ed0,1,1,0,9,5676.0,2600.0,0.0,0.0,4956.0,14.0,0.0,5556.0,1.0,3.0,-0.7,3,1,33.0,1.0,1.0,1,1,0.0,1.0,-1.0,3.0,65.33333333333333,9.333333333333334,10.0,55.0,66.0,75.0,55.0,56,66.0,77.0,66.0,-0.16666666666666663,0.17857142857142858,0,0,0.16666666666666657,0,0,5740.0,0.02125880674217426,0.0,1.0,0.0,0.0
uik7aoor,7y6562pk,418c69c6-ec34-43cb-8592-f2fd1b6fcf4f,022bbf5d-3d6e-47c2-9a2a-66d712d45701,1,1,0,9,4817.0,3800.0,0.0,0.0,4778.0,11.0,1.0,4787.0,0.25,9.0,0.65,1,1,45.0,0.0,1.0,0,1,1.0,0.0,1.0,3.0,65.33333333333333,9.333333333333334,10.0,55.0,66.0,75.0,55.0,56,66.0,77.0,66.0,-0.16666666666666663,0.17857142857142858,0,0,0.16666666666666657,0,0,5394.0,0.02125880674217426,0.0,0.0,1.0,0.0
uik7aoor,lk5oyxpy,418c69c6-ec34-43cb-8592-f2fd1b6fcf4f,376885f3-c47c-49f0-a0be-9a38c1b06b80,1,1,0,9,4459.0,2600.0,0.0,0.0,4368.0,26.0,0.0,4419.0,0.3333333333333333,10.0,0.6666666666666667,1,0,33.0,1.0,0.0,1,1,0.0,0.0,0.0,3.0,65.33333333333333,9.333333333333334,10.0,55.0,66.0,75.0,55.0,56,66.0,77.0,66.0,-0.16666666666666663,0.17857142857142858,0,0,0.16666666666666657,0,0,5824.0,0.02125880674217426,0.0,0.0,0.0,1.0
uik7aoor,tgar6z2d,418c69c6-ec34-43cb-8592-f2fd1b6fcf4f,9f70b144-bb13-4260-831f-f9cb21838f0b,1,1,0,9,4759.0,3800.0,0.0,0.0,4534.0,18.0,1.0,4699.0,0.5,9.0,0.4,4,1,22.0,0.0,1.0,1,1,2.0,1.0,1.0,3.0,65.33333333333333,9.333333333333334,10.0,55.0,66.0,75.0,55.0,56,66.0,77.0,66.0,-0.16666666666666663,0.17857142857142858,0,0,0.16666666666666657,0,0,5542.0,0.02125880674217426,0.0,0.0,0.0,1.0
uik7aoor,z3reux71,418c69c6-ec34-43cb-8592-f2fd1b6fcf4f,9d53611f-f803-450c-bed2-ad0697c26298,1,1,0,9,5706.0,2600.0,0.0,0.0,4900.0,16.0,0.0,5636.0,0.5833333333333334,9.0,0.31666666666666665,1,1,21.0,0.0,0.0,0,1,0.0,0.0,0.0,3.0,65.33333333333333,9.333333333333334,10.0,55.0,66.0,75.0,55.0,56,66.0,77.0,66.0,-0.16666666666666663,0.17857142857142858,0,0,0.16666666666666657,0,0,5796.0,0.02125880674217426,0.0,0.0,0.0,1.0
uik7aoor,a12rmbju,418c69c6-ec34-43cb-8592-f2fd1b6fcf4f,d08bcb2b-8529-4fb2-8df1-d0ba2880bbed,1,1,0,9,5027.0,3800.0,0.0,0.0,4862.0,10.0,1.0,4907.0,1.0,4.0,-0.6,2,0,23.0,1.0,1.0,1,1,0.0,0.0,0.0,3.0,65.33333333333333,9.333333333333334,10.0,55.0,66.0,75.0,55.0,56,66.0,77.0,66.0,-0.16666666666666663,0.17857142857142858,0,0,0.16666666666666657,0,0,5422.0,0.02125880674217426,0.0,0.0,0.0,1.0
uik7aoor,nwrelnt3,5c7e4638-30e0-4888-990f-24f3d564c836,7101c7b2-cced-4f23-8b1e-af06300a3134,0,0,0,10,5638.0,2600.0,,,4809.0,18.0,,5578.0,0.3333333333333333,8.0,0.46666666666666673,2,0,33.0,0.0,1.0,1,1,0.0,1.0,-1.0,3.0,62.333333333333336,14.333333333333334,14.333333333333334,65.0,62.0,65.0,60.0,48,60.0,68.0,43.0,0.08333333333333326,0.2986111111111111,0,0,0.29861111111111116,0,0,5673.0,0.021589148170092522,0.0,0.0,0.0,1.0
uik7aoor,jyza2hen,5c7e4638-30e0-4888-990f-24f3d564c836,be95f527-5ad3-4c59-b86e-16b055696e7d,0,0,0,10,4939.0,3800.0,,,4753.0,11.0,,4789.0,0.9166666666666666,10.0,0.08333333333333337,1,1,23.0,0.0,1.0,1,1,0.0,0.0,0.0,3.0,62.333333333333336,14.333333333333334,14.333333333333334,65.0,62.0,65.0,60.0,48,60.0,68.0,43.0,0.08333333333333326,0.2986111111111111,0,0,0.29861111111111116,0,0,5281.0,0.021589148170092522,0.0,0.0,0.0,1.0
uik7aoor,8hcohaqe,5c7e4638-30e0-4888-990f-24f3d564c836,a9a9bfc8-0b2a-4983-bcf0-4b86c657dd86,0,0,0,10,4900.0,2600.0,,,4674.5,19.0,,4720.0,1.0,2.0,-0.8,2,1,22.0,0.0,0.0,0,1,1.0,0.0,1.0,3.0,62.333333333333336,14.333333333333334,14.333333333333334,65.0,62.0,65.0,60.0,48,60.0,68.0,43.0,0.08333333333333326,0.2986111111111111,0,0,0.29861111111111116,0,0,5586.5,0.021589148170092522,0.0,1.0,0.0,0.0
uik7aoor,4emhkmm9,5c7e4638-30e0-4888-990f-24f3d564c836,78864939-4723-4d4e-a310-1733979e65ba,0,0,0,10,5371.0,3800.0,,,4952.0,8.0,,5301.0,0.25,10.0,0.75,1,0,45.0,0.0,1.0,1,1,0.0,1.0,-1.0,3.0,62.333333333333336,14.333333333333334,14.333333333333334,65.0,62.0,65.0,60.0,48,60.0,68.0,43.0,0.08333333333333326,0.2986111111111111,0,0,0.29861111111111116,0,0,5336.0,0.021589148170092522,0.0,1.0,0.0,0.0
uik7aoor,gfuuq2ww,5c7e4638-30e0-4888-990f-24f3d564c836,f4139a7f-b72e-4c9e-b9f8-776ff8a34dc9,0,0,0,10,4482.0,2600.0,,,4717.0,21.0,,4462.0,0.16666666666666666,3.0,0.13333333333333333,3,1,19.0,0.0,0.0,1,1,1.0,1.0,0.0,3.0,62.333333333333336,14.333333333333334,14.333333333333334,65.0,62.0,65.0,60.0,48,60.0,68.0,43.0,0.08333333333333326,0.2986111111111111,0,0,0.29861111111111116,0,0,5725.0,0.021589148170092522,0.0,0.0,0.0,1.0
uik7aoor,cl09qtj4,5c7e4638-30e0-4888-990f-24f3d564c836,ce2794fe-8d67-4dc5-a1e4-fda7496f0027,0,0,0,10,4825.0,3800.0,,,4756.0,14.0,,4715.0,0.9166666666666666,1.0,-0.8166666666666667,5,0,44.0,0.0,0.0,1,1,0.0,0.0,0.0,3.0,62.333333333333336,14.333333333333334,14.333333333333334,65.0,62.0,65.0,60.0,48,60.0,68.0,43.0,0.08333333333333326,0.2986111111111111,0,0,0.29861111111111116,0,0,5428.0,0.021589148170092522,0.0,0.0,1.0,0.0
uik7aoor,2i53nqi2,5c7e4638-30e0-4888-990f-24f3d564c836,336243e5-56a5-47f6-9862-1a9c250841e8,0,0,0,10,5674.0,2600.0,,,4669.5,22.0,,5664.0,0.08333333333333333,10.0,0.9166666666666666,1,1,22.0,0.0,0.0,0,1,0.0,0.0,0.0,3.0,62.333333333333336,14.333333333333334,14.333333333333334,65.0,62.0,65.0,60.0,48,60.0,68.0,43.0,0.08333333333333326,0.2986111111111111,0,0,0.29861111111111116,0,0,5725.5,0.021589148170092522,0.0,0.0,0.0,1.0
uik7aoor,wffepf9u,5c7e4638-30e0-4888-990f-24f3d564c836,4e3199a4-5b9d-45d0-980a-96571662a0a8,0,0,0,10,5134.0,3800.0,,,4839.0,6.0,,5074.0,0.3333333333333333,8.0,0.46666666666666673,1,1,44.0,0.0,1.0,1,1,1.0,0.0,1.0,3.0,62.333333333333336,14.333333333333334,14.333333333333334,65.0,62.0,65.0,60.0,48,60.0,68.0,43.0,0.08333333333333326,0.2986111111111111,0,0,0.29861111111111116,0,0,5127.0,0.021589148170092522,0.0,0.0,0.0,1.0
uik7aoor,b2sjpg82,418c69c6-ec34-43cb-8592-f2fd1b6fcf4f,3f6f9d47-f2e6-44f6-8da9-2c8a16a3df63,1,1,0,10,5772.0,2600.0,,,4694.0,21.0,1.0,5702.0,0.5833333333333334,3.0,-0.2833333333333334,3,0,22.0,0.0,0.0,1,1,2.0,1.0,1.0,4.0,57.5,9.5,9.5,66.0,66.0,66.0,48.0,48,55.0,66.0,66.0,0.19999999999999996,0.19791666666666666,0,0,0.19791666666666666,0,0,5702.0,0.017725325799690148,0.0,0.0,1.0,0.0
uik7aoor,juhy06e8,418c69c6-ec34-43cb-8592-f2fd1b6fcf4f,e35674dc-ec96-4955-9641-275f1f5a2902,1,1,0,10,4773.0,3800.0,,,4990.0,5.0,0.0,4693.0,0.6666666666666666,8.0,0.13333333333333341,1,1,66.0,0.0,0.0,1,1,0.0,0.0,0.0,4.0,57.5,9.5,9.5,66.0,66.0,66.0,48.0,48,55.0,66.0,66.0,0.19999999999999996,0.19791666666666666,0,0,0.19791666666666666,0,0,5230.0,0.017725325799690148,0.0,0.0,0.0,1.0
uik7aoor,hliggtnp,418c69c6-ec34-43cb-8592-f2fd1b6fcf4f,fde48bd3-7bd3-4e77-a95f-25abeea55ed0,1,1,0,10,5676.0,2600.0,,,5022.0,13.0,0.0,5556.0,1.0,3.0,-0.7,3,1,33.0,1.0,1.0,1,1,0.0,1.0,-1.0,4.0,57.5,9.5,9.5,66.0,66.0,66.0,48.0,48,55.0,66.0,66.0,0.19999999999999996,0.19791666666666666,0,0,0.19791666666666666,0,0,5646.0,0.017725325799690148,0.0,1.0,0.0,0.0
uik7aoor,7y6562pk,418c69c6-ec34-43cb-8592-f2fd1b6fcf4f,022bbf5d-3d6e-47c2-9a2a-66d712d45701,1,1,0,10,4817.0,3800.0,,,4778.0,11.0,1.0,4787.0,0.25,9.0,0.65,1,1,45.0,0.0,1.0,0,1,0.0,0.0,0.0,4.0,57.5,9.5,9.5,66.0,66.0,66.0,48.0,48,55.0,66.0,66.0,0.19999999999999996,0.19791666666666666,0,0,0.19791666666666666,0,0,5306.0,0.017725325799690148,0.0,0.0,1.0,0.0
uik7aoor,lk5oyxpy,418c69c6-ec34-43cb-8592-f2fd1b6fcf4f,376885f3-c47c-49f0-a0be-9a38c1b06b80,1,1,0,10,4459.0,2600.0,,,4302.0,27.0,0.0,4419.0,0.3333333333333333,10.0,0.6666666666666667,1,0,33.0,1.0,0.0,1,1,1.0,0.0,1.0,4.0,57.5,9.5,9.5,66.0,66.0,66.0,48.0,48,55.0,66.0,66.0,0.19999999999999996,0.19791666666666666,0,0,0.19791666666666666,0,0,5598.0,0.017725325799690148,0.0,0.0,0.0,1.0
uik7aoor,tgar6z2d,418c69c6-ec34-43cb-8592-f2fd1b6fcf4f,9f70b144-bb13-4260-831f-f9cb21838f0b,1,1,0,10,4759.0,3800.0,,,4536.0,18.0,1.0,4699.0,0.5,9.0,0.4,4,1,22.0,0.0,1.0,1,1,1.0,1.0,0.0,4.0,57.5,9.5,9.5,66.0,66.0,66.0,48.0,48,55.0,66.0,66.0,0.19999999999999996,0.19791666666666666,0,0,0.19791666666666666,0,0,5400.0,0.017725325799690148,0.0,0.0,0.0,1.0
uik7aoor,z3reux71,418c69c6-ec34-43cb-8592-f2fd1b6fcf4f,9d53611f-f803-450c-bed2-ad0697c26298,1,1,0,10,5706.0,2600.0,,,4900.0,16.0,0.0,5636.0,0.5833333333333334,9.0,0.31666666666666665,1,1,21.0,0.0,0.0,0,1,0.0,0.0,0.0,4.0,57.5,9.5,9.5,66.0,66.0,66.0,48.0,48,55.0,66.0,66.0,0.19999999999999996,0.19791666666666666,0,0,0.19791666666666666,0,0,5668.0,0.017725325799690148,0.0,0.0,0.0,1.0
uik7aoor,a12rmbju,418c69c6-ec34-43cb-8592-f2fd1b6fcf4f,d08bcb2b-8529-4fb2-8df1-d0ba2880bbed,1,1,0,10,5027.0,3800.0,,,4910.0,9.0,1.0,4907.0,1.0,4.0,-0.6,2,0,23.0,1.0,1.0,1,1,0.0,1.0,-1.0,4.0,57.5,9.5,9.5,66.0,66.0,66.0,48.0,48,55.0,66.0,66.0,0.19999999999999996,0.19791666666666666,0,0,0.19791666666666666,0,0,5342.0,0.017725325799690148,0.0,0.0,0.0,1.0
uik7aoor,nwrelnt3,5c7e4638-30e0-4888-990f-24f3d564c836,7101c7b2-cced-4f23-8b1e-af06300a3134,0,0,0,11,5638.0,2600.0,,,4865.0,20.0,,5578.0,0.3333333333333333,8.0,0.46666666666666673,2,0,33.0,0.0,1.0,1,1,2.0,0.0,2.0,5.0,43.6,3.6,3.6,43.0,42.0,45.0,42.0,40,65.0,60.0,40.0,-0.3384615384615385,0.09,0,0,0.09000000000000004,0,0,5665.0,0.02139259833189007,0.0,0.0,0.0,1.0
uik7aoor,jyza2hen,5c7e4638-30e0-4888-990f-24f3d564c836,be95f527-5ad3-4c59-b86e-16b055696e7d,0,0,0,11,4939.0,3800.0,,,4796.0,12.0,,4789.0,0.9166666666666666,10.0,0.08333333333333337,1,1,23.0,0.0,1.0,1,1,1.0,0.0,1.0,5.0,43.6,3.6,3.6,43.0,42.0,45.0,42.0,40,65.0,60.0,40.0,-0.3384615384615385,0.09,0,0,0.09000000000000004,0,0,5276.0,0.02139259833189007,0.0,0.0,0.0,1.0
uik7aoor,8hcohaqe,5c7e4638-30e0-4888-990f-24f3d564c836,a9a9bfc8-0b2a-4983-bcf0-4b86c657dd86,0,0,0,11,4900.0,2600.0,,,4826.5,19.0,,4720.0,1.0,2.0,-0.8,2,1,22.0,0.0,0.0,0,1,0.0,0.0,0.0,5.0,43.6,3.6,3.6,43.0,42.0,45.0,42.0,40,65.0,60.0,40.0,-0.3384615384615385,0.09,0,0,0.09000000000000004,0,0,5586.5,0.02139259833189007,0.0,1.0,0.0,0.0
uik7aoor,4emhkmm9,5c7e4638-30e0-4888-990f-24f3d564c836,78864939-4723-4d4e-a310-1733979e65ba,0,0,0,11,5371.0,3800.0,,,5019.0,8.0,,5301.0,0.25,10.0,0.75,1,0,45.0,0.0,1.0,1,1,1.0,1.0,0.0,5.0,43.6,3.6,3.6,43.0,42.0,45.0,42.0,40,65.0,60.0,40.0,-0.3384615384615385,0.09,0,0,0.09000000000000004,0,0,5339.0,0.02139259833189007,0.0,1.0,0.0,0.0
uik7aoor,gfuuq2ww,5c7e4638-30e0-4888-990f-24f3d564c836,f4139a7f-b72e-4c9e-b9f8-776ff8a34dc9,0,0,0,11,4482.0,2600.0,,,4927.0,20.0,,4462.0,0.16666666666666666,3.0,0.13333333333333333,3,1,19.0,0.0,0.0,1,1,0.0,1.0,-1.0,5.0,43.6,3.6,3.6,43.0,42.0,45.0,42.0,40,65.0,60.0,40.0,-0.3384615384615385,0.09,0,0,0.09000000000000004,0,0,5727.0,0.02139259833189007,0.0,0.0,0.0,1.0
uik7aoor,cl09qtj4,5c7e4638-30e0-4888-990f-24f3d564c836,ce2794fe-8d67-4dc5-a1e4-fda7496f0027,0,0,0,11,4825.0,3800.0,,,4911.0,13.0,,4715.0,0.9166666666666666,1.0,-0.8166666666666667,5,0,44.0,0.0,0.0,1,1,0.0,1.0,-1.0,5.0,43.6,3.6,3.6,43.0,42.0,45.0,42.0,40,65.0,60.0,40.0,-0.3384615384615385,0.09,0,0,0.09000000000000004,0,0,5431.0,0.02139259833189007,0.0,0.0,1.0,0.0
uik7aoor,2i53nqi2,5c7e4638-30e0-4888-990f-24f3d564c836,336243e5-56a5-47f6-9862-1a9c250841e8,0,0,0,11,5674.0,2600.0,,,4802.5,23.0,,5664.0,0.08333333333333333,10.0,0.9166666666666666,1,1,22.0,0.0,0.0,0,1,1.0,0.0,1.0,5.0,43.6,3.6,3.6,43.0,42.0,45.0,42.0,40,65.0,60.0,40.0,-0.3384615384615385,0.09,0,0,0.09000000000000004,0,0,5722.5,0.02139259833189007,0.0,0.0,0.0,1.0
uik7aoor,wffepf9u,5c7e4638-30e0-4888-990f-24f3d564c836,4e3199a4-5b9d-45d0-980a-96571662a0a8,0,0,0,11,5134.0,3800.0,,,4975.0,4.0,,5074.0,0.3333333333333333,8.0,0.46666666666666673,1,1,44.0,0.0,1.0,1,1,0.0,2.0,-2.0,5.0,43.6,3.6,3.6,43.0,42.0,45.0,42.0,40,65.0,60.0,40.0,-0.3384615384615385,0.09,0,0,0.09000000000000004,0,0,5135.0,0.02139259833189007,0.0,0.0,0.0,1.0
uik7aoor,b2sjpg82,418c69c6-ec34-43cb-8592-f2fd1b6fcf4f,3f6f9d47-f2e6-44f6-8da9-2c8a16a3df63,1,1,0,11,5772.0,2600.0,,,4862.0,21.0,1.0,5702.0,0.5833333333333334,3.0,-0.2833333333333334,3,0,22.0,0.0,0.0,1,1,0.0,0.0,0.0,0.0,,,,66.0,,,,40,66.0,55.0,33.0,0.0,,0,0,,0,0,5702.0,0.017725325799690148,0.0,0.0,1.0,0.0
uik7aoor,juhy06e8,418c69c6-ec34-43cb-8592-f2fd1b6fcf4f,e35674dc-ec96-4955-9641-275f1f5a2902,1,1,0,11,4773.0,3800.0,,,5030.0,5.0,0.0,4693.0,0.6666666666666666,8.0,0.13333333333333341,1,1,66.0,0.0,0.0,1,1,0.0,0.0,0.0,0.0,,,,66.0,,,,40,66.0,55.0,33.0,0.0,,0,0,,0,0,5230.0,0.017725325799690148,0.0,0.0,0.0,1.0
uik7aoor,hliggtnp,418c69c6-ec34-43cb-8592-f2fd1b6fcf4f,fde48bd3-7bd3-4e77-a95f-25abeea55ed0,1,1,0,11,5676.0,2600.0,,,5126.0,13.0,0.0,5556.0,1.0,3.0,-0.7,3,1,33.0,1.0,1.0,1,1,0.0,0.0,0.0,0.0,,,,66.0,,,,40,66.0,55.0,33.0,0.0,,0,0,,0,0,5646.0,0.017725325799690148,0.0,1.0,0.0,0.0
uik7aoor,7y6562pk,418c69c6-ec34-43cb-8592-f2fd1b6fcf4f,022bbf5d-3d6e-47c2-9a2a-66d712d45701,1,1,0,11,4817.0,3800.0,,,4866.0,11.0,1.0,4787.0,0.25,9.0,0.65,1,1,45.0,0.0,1.0,0,1,0.0,0.0,0.0,0.0,,,,66.0,,,,40,66.0,55.0,33.0,0.0,,0,0,,0,0,5306.0,0.017725325799690148,0.0,0.0,1.0,0.0
uik7aoor,lk5oyxpy,418c69c6-ec34-43cb-8592-f2fd1b6fcf4f,376885f3-c47c-49f0-a0be-9a38c1b06b80,1,1,0,11,4459.0,2600.0,,,4518.0,27.0,0.0,4419.0,0.3333333333333333,10.0,0.6666666666666667,1,0,33.0,1.0,0.0,1,1,0.0,0.0,0.0,0.0,,,,66.0,,,,40,66.0,55.0,33.0,0.0,,0,0,,0,0,5598.0,0.017725325799690148,0.0,0.0,0.0,1.0
uik7aoor,tgar6z2d,418c69c6-ec34-43cb-8592-f2fd1b6fcf4f,9f70b144-bb13-4260-831f-f9cb21838f0b,1,1,0,11,4759.0,3800.0,,,4680.0,18.0,1.0,4699.0,0.5,9.0,0.4,4,1,22.0,0.0,1.0,1,1,0.0,0.0,0.0,0.0,,,,66.0,,,,40,66.0,55.0,33.0,0.0,,0,0,,0,0,5400.0,0.017725325799690148,0.0,0.0,0.0,1.0
uik7aoor,z3reux71,418c69c6-ec34-43cb-8592-f2fd1b6fcf4f,9d53611f-f803-450c-bed2-ad0697c26298,1,1,0,11,5706.0,2600.0,,,5028.0,16.0,0.0,5636.0,0.5833333333333334,9.0,0.31666666666666665,1,1,21.0,0.0,0.0,0,1,0.0,0.0,0.0,0.0,,,,66.0,,,,40,66.0,55.0,33.0,0.0,,0,0,,0,0,5668.0,0.017725325799690148,0.0,0.0,0.0,1.0
uik7aoor,a12rmbju,418c69c6-ec34-43cb-8592-f2fd1b6fcf4f,d08bcb2b-8529-4fb2-8df1-d0ba2880bbed,1,1,0,11,5027.0,3800.0,,,4982.0,9.0,1.0,4907.0,1.0,4.0,-0.6,2,0,23.0,1.0,1.0,1,1,0.0,0.0,0.0,0.0,,,,66.0,,,,40,66.0,55.0,33.0,0.0,,0,0,,0,0,5342.0,0.017725325799690148,0.0,0.0,0.0,1.0
uik7aoor,nwrelnt3,5c7e4638-30e0-4888-990f-24f3d564c836,7101c7b2-cced-4f23-8b1e-af06300a3134,0,0,0,12,5638.0,2600.0,0.0,0.0,5065.0,19.0,,5578.0,0.3333333333333333,8.0,0.46666666666666673,2,0,33.0,0.0,1.0,1,1,0.0,1.0,-1.0,6.0,38.5,6.5,6.5,40.0,40.0,44.0,32.0,32,43.0,65.0,24.0,-0.06976744186046513,0.203125,0,0,0.203125,0,0,5673.0,0.022221525910396063,0.0,0.0,0.0,1.0
uik7aoor,jyza2hen,5c7e4638-30e0-4888-990f-24f3d564c836,be95f527-5ad3-4c59-b86e-16b055696e7d,0,0,0,12,4939.0,3800.0,0.0,0.0,4892.0,12.0,,4789.0,0.9166666666666666,10.0,0.08333333333333337,1,1,23.0,0.0,1.0,1,1,0.0,0.0,0.0,6.0,38.5,6.5,6.5,40.0,40.0,44.0,32.0,32,43.0,65.0,24.0,-0.06976744186046513,0.203125,0,0,0.203125,0,0,5276.0,0.022221525910396063,0.0,0.0,0.0,1.0
uik7aoor,8hcohaqe,5c7e4638-30e0-4888-990f-24f3d564c836,a9a9bfc8-0b2a-4983-bcf0-4b86c657dd86,0,0,0,12,4900.0,2600.0,24.0,4.0,5018.5,18.0,,4720.0,1.0,2.0,-0.8,2,1,22.0,0.0,0.0,0,1,0.0,1.0,-1.0,6.0,38.5,6.5,6.5,40.0,40.0,44.0,32.0,32,43.0,65.0,24.0,-0.06976744186046513,0.203125,0,0,0.203125,0,0,5594.5,0.022221525910396063,0.0,1.0,0.0,0.0
uik7aoor,4emhkmm9,5c7e4638-30e0-4888-990f-24f3d564c836,78864939-4723-4d4e-a310-1733979e65ba,0,0,0,12,5371.0,3800.0,24.0,5.0,5048.0,9.0,,5301.0,0.25,10.0,0.75,1,0,45.0,0.0,1.0,1,1,1.0,0.0,1.0,6.0,38.5,6.5,6.5,40.0,40.0,44.0,32.0,32,43.0,65.0,24.0,-0.06976744186046513,0.203125,0,0,0.203125,0,0,5336.0,0.022221525910396063,0.0,1.0,0.0,0.0
uik7aoor,gfuuq2ww,5c7e4638-30e0-4888-990f-24f3d564c836,f4139a7f-b72e-4c9e-b9f8-776ff8a34dc9,0,0,0,12,4482.0,2600.0,0.0,0.0,5087.0,20.0,,4462.0,0.16666666666666666,3.0,0.13333333333333333,3,1,19.0,0.0,0.0,1,1,0.0,0.0,0.0,6.0,38.5,6.5,6.5,40.0,40.0,44.0,32.0,32,43.0,65.0,24.0,-0.06976744186046513,0.203125,0,0,0.203125,0,0,5727.0,0.022221525910396063,0.0,0.0,0.0,1.0
uik7aoor,cl09qtj4,5c7e4638-30e0-4888-990f-24f3d564c836,ce2794fe-8d67-4dc5-a1e4-fda7496f0027,0,0,0,12,4825.0,3800.0,0.0,0.0,5047.0,12.0,,4715.0,0.9166666666666666,1.0,-0.8166666666666667,5,0,44.0,0.0,0.0,1,1,0.0,1.0,-1.0,6.0,38.5,6.5,6.5,40.0,40.0,44.0,32.0,32,43.0,65.0,24.0,-0.06976744186046513,0.203125,0,0,0.203125,0,0,5431.0,0.022221525910396063,0.0,0.0,1.0,0.0
uik7aoor,2i53nqi2,5c7e4638-30e0-4888-990f-24f3d564c836,336243e5-56a5-47f6-9862-1a9c250841e8,0,0,0,12,5674.0,2600.0,0.0,0.0,5030.5,22.0,,5664.0,0.08333333333333333,10.0,0.9166666666666666,1,1,22.0,0.0,0.0,0,1,1.0,2.0,-1.0,6.0,38.5,6.5,6.5,40.0,40.0,44.0,32.0,32,43.0,65.0,24.0,-0.06976744186046513,0.203125,0,0,0.203125,0,0,5734.5,0.022221525910396063,0.0,0.0,0.0,1.0
uik7aoor,wffepf9u,5c7e4638-30e0-4888-990f-24f3d564c836,4e3199a4-5b9d-45d0-980a-96571662a0a8,0,0,0,12,5134.0,3800.0,24.0,4.0,4886.0,7.0,,5074.0,0.3333333333333333,8.0,0.46666666666666673,1,1,44.0,0.0,1.0,1,1,4.0,1.0,3.0,6.0,38.5,6.5,6.5,40.0,40.0,44.0,32.0,32,43.0,65.0,24.0,-0.06976744186046513,0.203125,0,0,0.203125,0,0,5110.0,0.022221525910396063,0.0,0.0,0.0,1.0
uik7aoor,b2sjpg82,418c69c6-ec34-43cb-8592-f2fd1b6fcf4f,3f6f9d47-f2e6-44f6-8da9-2c8a16a3df63,1,1,0,12,5772.0,2600.0,45.0,3.0,5068.0,20.0,1.0,5702.0,0.5833333333333334,3.0,-0.2833333333333334,3,0,22.0,0.0,0.0,1,1,0.0,1.0,-1.0,3.0,35.333333333333336,3.3333333333333335,3.3333333333333335,33.0,38.0,38.0,33.0,32,66.0,66.0,80.0,-0.5,0.10416666666666667,0,0,0.10416666666666674,0,0,5708.0,0.01779937118381482,0.0,0.0,1.0,0.0
uik7aoor,juhy06e8,418c69c6-ec34-43cb-8592-f2fd1b6fcf4f,e35674dc-ec96-4955-9641-275f1f5a2902,1,1,0,12,4773.0,3800.0,0.0,0.0,5070.0,5.0,0.0,4693.0,0.6666666666666666,8.0,0.13333333333333341,1,1,66.0,0.0,0.0,1,1,0.0,0.0,0.0,3.0,35.333333333333336,3.3333333333333335,3.3333333333333335,33.0,38.0,38.0,33.0,32,66.0,66.0,80.0,-0.5,0.10416666666666667,0,0,0.10416666666666674,0,0,5230.0,0.01779937118381482,0.0,0.0,0.0,1.0
uik7aoor,hliggtnp,418c69c6-ec34-43cb-8592-f2fd1b6fcf4f,fde48bd3-7bd3-4e77-a95f-25abeea55ed0,1,1,0,12,5676.0,2600.0,0.0,0.0,5192.0,14.0,0.0,5556.0,1.0,3.0,-0.7,3,1,33.0,1.0,1.0,1,1,1.0,0.0,1.0,3.0,35.333333333333336,3.3333333333333335,3.3333333333333335,33.0,38.0,38.0,33.0,32,66.0,66.0,80.0,-0.5,0.10416666666666667,0,0,0.10416666666666674,0,0,5640.0,0.01779937118381482,0.0,1.0,0.0,0.0
uik7aoor,7y6562pk,418c69c6-ec34-43cb-8592-f2fd1b6fcf4f,022bbf5d-3d6e-47c2-9a2a-66d712d45701,1,1,0,12,4817.0,3800.0,87.0,3.0,4987.0,10.0,1.0,4787.0,0.25,9.0,0.65,1,1,45.0,0.0,1.0,0,1,0.0,1.0,-1.0,3.0,35.333333333333336,3.3333333333333335,3.3333333333333335,33.0,38.0,38.0,33.0,32,66.0,66.0,80.0,-0.5,0.10416666666666667,0,0,0.10416666666666674,0,0,5307.0,0.01779937118381482,0.0,0.0,1.0,0.0
uik7aoor,lk5oyxpy,418c69c6-ec34-43cb-8592-f2fd1b6fcf4f,376885f3-c47c-49f0-a0be-9a38c1b06b80,1,1,0,12,4459.0,2600.0,66.0,3.0,4699.0,28.0,0.0,4419.0,0.3333333333333333,10.0,0.6666666666666667,1,0,33.0,1.0,0.0,1,1,1.0,0.0,1.0,3.0,35.333333333333336,3.3333333333333335,3.3333333333333335,33.0,38.0,38.0,33.0,32,66.0,66.0,80.0,-0.5,0.10416666666666667,0,0,0.10416666666666674,0,0,5595.0,0.01779937118381482,0.0,0.0,0.0,1.0
uik7aoor,tgar6z2d,418c69c6-ec34-43cb-8592-f2fd1b6fcf4f,9f70b144-bb13-4260-831f-f9cb21838f0b,1,1,0,12,4759.0,3800.0,0.0,0.0,4824.0,18.0,1.0,4699.0,0.5,9.0,0.4,4,1,22.0,0.0,1.0,1,1,0.0,0.0,0.0,3.0,35.333333333333336,3.3333333333333335,3.3333333333333335,33.0,38.0,38.0,33.0,32,66.0,66.0,80.0,-0.5,0.10416666666666667,0,0,0.10416666666666674,0,0,5400.0,0.01779937118381482,0.0,0.0,0.0,1.0
uik7aoor,z3reux71,418c69c6-ec34-43cb-8592-f2fd1b6fcf4f,9d53611f-f803-450c-bed2-ad0697c26298,1,1,0,12,5706.0,2600.0,0.0,0.0,5158.0,16.0,0.0,5636.0,0.5833333333333334,9.0,0.31666666666666665,1,1,21.0,0.0,0.0,0,1,1.0,1.0,0.0,3.0,35.333333333333336,3.3333333333333335,3.3333333333333335,33.0,38.0,38.0,33.0,32,66.0,66.0,80.0,-0.5,0.10416666666666667,0,0,0.10416666666666674,0,0,5670.0,0.01779937118381482,0.0,0.0,0.0,1.0
uik7aoor,a12rmbju,418c69c6-ec34-43cb-8592-f2fd1b6fcf4f,d08bcb2b-8529-4fb2-8df1-d0ba2880bbed,1,1,0,12,5027.0,3800.0,0.0,0.0,5054.0,9.0,1.0,4907.0,1.0,4.0,-0.6,2,0,23.0,1.0,1.0,1,1,0.0,0.0,0.0,3.0,35.333333333333336,3.3333333333333335,3.3333333333333335,33.0,38.0,38.0,33.0,32,66.0,66.0,80.0,-0.5,0.10416666666666667,0,0,0.10416666666666674,0,0,5342.0,0.01779937118381482,0.0,0.0,0.0,1.0
uik7aoor,nwrelnt3,5c7e4638-30e0-4888-990f-24f3d564c836,7101c7b2-cced-4f23-8b1e-af06300a3134,0,0,0,13,5638.0,2600.0,,,5194.0,20.0,,5578.0,0.3333333333333333,8.0,0.46666666666666673,2,0,33.0,0.0,1.0,1,1,2.0,1.0,1.0,5.0,23.0,-1.0,1.0,24.0,23.0,24.0,22.0,24,40.0,43.0,14.0,-0.4,0.041666666666666664,0,0,-0.041666666666666664,0,0,5674.0,0.022693367649068465,0.0,0.0,0.0,1.0
uik7aoor,jyza2hen,5c7e4638-30e0-4888-990f-24f3d564c836,be95f527-5ad3-4c59-b86e-16b055696e7d,0,0,0,13,4939.0,3800.0,,,5058.0,9.0,,4789.0,0.9166666666666666,10.0,0.08333333333333337,1,1,23.0,0.0,1.0,1,1,0.0,3.0,-3.0,5.0,23.0,-1.0,1.0,24.0,23.0,24.0,22.0,24,40.0,43.0,14.0,-0.4,0.041666666666666664,0,0,-0.041666666666666664,0,0,5274.0,0.022693367649068465,0.0,0.0,0.0,1.0
uik7aoor,8hcohaqe,5c7e4638-30e0-4888-990f-24f3d564c836,a9a9bfc8-0b2a-4983-bcf0-4b86c657dd86,0,0,0,13,4900.0,2600.0,,,5162.5,18.0,,4720.0,1.0,2.0,-0.8,2,1,22.0,0.0,0.0,0,1,0.0,0.0,0.0,5.0,23.0,-1.0,1.0,24.0,23.0,24.0,22.0,24,40.0,43.0,14.0,-0.4,0.041666666666666664,0,0,-0.041666666666666664,0,0,5594.5,0.022693367649068465,0.0,1.0,0.0,0.0
uik7aoor,4emhkmm9,5c7e4638-30e0-4888-990f-24f3d564c836,78864939-4723-4d4e-a310-1733979e65ba,0,0,0,13,5371.0,3800.0,,,5143.0,8.0,,5301.0,0.25,10.0,0.75,1,0,45.0,0.0,1.0,1,1,0.0,1.0,-1.0,5.0,23.0,-1.0,1.0,24.0,23.0,24.0,22.0,24,40.0,43.0,14.0,-0.4,0.041666666666666664,0,0,-0.041666666666666664,0,0,5335.0,0.022693367649068465,0.0,1.0,0.0,0.0
uik7aoor,gfuuq2ww,5c7e4638-30e0-4888-990f-24f3d564c836,f4139a7f-b72e-4c9e-b9f8-776ff8a34dc9,0,0,0,13,4482.0,2600.0,,,5247.0,20.0,,4462.0,0.16666666666666666,3.0,0.13333333333333333,3,1,19.0,0.0,0.0,1,1,0.0,0.0,0.0,5.0,23.0,-1.0,1.0,24.0,23.0,24.0,22.0,24,40.0,43.0,14.0,-0.4,0.041666666666666664,0,0,-0.041666666666666664,0,0,5727.0,0.022693367649068465,0.0,0.0,0.0,1.0
uik7aoor,cl09qtj4,5c7e4638-30e0-4888-990f-24f3d564c836,ce2794fe-8d67-4dc5-a1e4-fda7496f0027,0,0,0,13,4825.0,3800.0,,,5143.0,12.0,,4715.0,0.9166666666666666,1.0,-0.8166666666666667,5,0,44.0,0.0,0.0,1,1,0.0,0.0,0.0,5.0,23.0,-1.0,1.0,24.0,23.0,24.0,22.0,24,40.0,43.0,14.0,-0.4,0.041666666666666664,0,0,-0.041666666666666664,0,0,5431.0,0.022693367649068465,0.0,0.0,1.0,0.0
uik7aoor,2i53nqi2,5c7e4638-30e0-4888-990f-24f3d564c836,336243e5-56a5-47f6-9862-1a9c250841e8,0,0,0,13,5674.0,2600.0,,,5206.5,23.0,,5664.0,0.08333333333333333,10.0,0.9166666666666666,1,1,22.0,0.0,0.0,0,1,0.0,0.0,0.0,5.0,23.0,-1.0,1.0,24.0,23.0,24.0,22.0,24,40.0,43.0,14.0,-0.4,0.041666666666666664,0,0,-0.041666666666666664,0,0,5758.5,0.022693367649068465,0.0,0.0,0.0,1.0
uik7aoor,wffepf9u,5c7e4638-30e0-4888-990f-24f3d564c836,4e3199a4-5b9d-45d0-980a-96571662a0a8,0,0,0,13,5134.0,3800.0,,,4872.0,10.0,,5074.0,0.3333333333333333,8.0,0.46666666666666673,1,1,44.0,0.0,1.0,1,1,3.0,0.0,3.0,5.0,23.0,-1.0,1.0,24.0,23.0,24.0,22.0,24,40.0,43.0,14.0,-0.4,0.041666666666666664,0,0,-0.041666666666666664,0,0,5112.0,0.022693367649068465,0.0,0.0,0.0,1.0
uik7aoor,b2sjpg82,418c69c6-ec34-43cb-8592-f2fd1b6fcf4f,3f6f9d47-f2e6-44f6-8da9-2c8a16a3df63,1,1,0,13,5772.0,2600.0,,,5308.0,19.0,1.0,5702.0,0.5833333333333334,3.0,-0.2833333333333334,3,0,22.0,0.0,0.0,1,1,0.0,1.0,-1.0,2.0,85.025,61.025,61.025,80.0,90.05,90.05,80.0,24,33.0,66.0,11.0,1.4242424242424243,2.542708333333333,1,0,2.5427083333333336,1,1,5764.0,0.018945828399672102,0.0,0.0,1.0,0.0
uik7aoor,juhy06e8,418c69c6-ec34-43cb-8592-f2fd1b6fcf4f,e35674dc-ec96-4955-9641-275f1f5a2902,1,1,0,13,4773.0,3800.0,,,5110.0,5.0,0.0,4693.0,0.6666666666666666,8.0,0.13333333333333341,1,1,66.0,0.0,0.0,1,1,0.0,0.0,0.0,2.0,85.025,61.025,61.025,80.0,90.05,90.05,80.0,24,33.0,66.0,11.0,1.4242424242424243,2.542708333333333,1,0,2.5427083333333336,1,1,5230.0,0.018945828399672102,0.0,0.0,0.0,1.0
uik7aoor,hliggtnp,418c69c6-ec34-43cb-8592-f2fd1b6fcf4f,fde48bd3-7bd3-4e77-a95f-25abeea55ed0,1,1,0,13,5676.0,2600.0,,,5213.95,15.0,0.0,5556.0,1.0,3.0,-0.7,3,1,33.0,1.0,1.0,1,1,1.0,0.0,1.0,2.0,85.025,61.025,61.025,80.0,90.05,90.05,80.0,24,33.0,66.0,11.0,1.4242424242424243,2.542708333333333,1,0,2.5427083333333336,1,1,5573.95,0.018945828399672102,0.0,1.0,0.0,0.0
uik7aoor,7y6562pk,418c69c6-ec34-43cb-8592-f2fd1b6fcf4f,022bbf5d-3d6e-47c2-9a2a-66d712d45701,1,1,0,13,4817.0,3800.0,,,5067.0,10.0,1.0,4787.0,0.25,9.0,0.65,1,1,45.0,0.0,1.0,0,1,0.0,0.0,0.0,2.0,85.025,61.025,61.025,80.0,90.05,90.05,80.0,24,33.0,66.0,11.0,1.4242424242424243,2.542708333333333,1,0,2.5427083333333336,1,1,5307.0,0.018945828399672102,0.0,0.0,1.0,0.0
uik7aoor,lk5oyxpy,418c69c6-ec34-43cb-8592-f2fd1b6fcf4f,376885f3-c47c-49f0-a0be-9a38c1b06b80,1,1,0,13,4459.0,2600.0,,,4923.0,28.0,0.0,4419.0,0.3333333333333333,10.0,0.6666666666666667,1,0,33.0,1.0,0.0,1,1,0.0,0.0,0.0,2.0,85.025,61.025,61.025,80.0,90.05,90.05,80.0,24,33.0,66.0,11.0,1.4242424242424243,2.542708333333333,1,0,2.5427083333333336,1,1,5595.0,0.018945828399672102,0.0,0.0,0.0,1.0
uik7aoor,tgar6z2d,418c69c6-ec34-43cb-8592-f2fd1b6fcf4f,9f70b144-bb13-4260-831f-f9cb21838f0b,1,1,0,13,4759.0,3800.0,,,4968.0,18.0,1.0,4699.0,0.5,9.0,0.4,4,1,22.0,0.0,1.0,1,1,0.0,0.0,0.0,2.0,85.025,61.025,61.025,80.0,90.05,90.05,80.0,24,33.0,66.0,11.0,1.4242424242424243,2.542708333333333,1,0,2.5427083333333336,1,1,5400.0,0.018945828399672102,0.0,0.0,0.0,1.0
uik7aoor,z3reux71,418c69c6-ec34-43cb-8592-f2fd1b6fcf4f,9d53611f-f803-450c-bed2-ad0697c26298,1,1,0,13,5706.0,2600.0,,,5296.05,17.0,0.0,5636.0,0.5833333333333334,9.0,0.31666666666666665,1,1,21.0,0.0,0.0,0,1,1.0,1.0,0.0,2.0,85.025,61.025,61.025,80.0,90.05,90.05,80.0,24,33.0,66.0,11.0,1.4242424242424243,2.542708333333333,1,0,2.5427083333333336,1,1,5704.05,0.018945828399672102,0.0,0.0,0.0,1.0
uik7aoor,a12rmbju,418c69c6-ec34-43cb-8592-f2fd1b6fcf4f,d08bcb2b-8529-4fb2-8df1-d0ba2880bbed,1,1,0,13,5027.0,3800.0,,,5126.0,9.0,1.0,4907.0,1.0,4.0,-0.6,2,0,23.0,1.0,1.0,1,1,0.0,0.0,0.0,2.0,85.025,61.025,61.025,80.0,90.05,90.05,80.0,24,33.0,66.0,11.0,1.4242424242424243,2.542708333333333,1,0,2.5427083333333336,1,1,5342.0,0.018945828399672102,0.0,0.0,0.0,1.0
uik7aoor,nwrelnt3,5c7e4638-30e0-4888-990f-24f3d564c836,7101c7b2-cced-4f23-8b1e-af06300a3134,0,0,0,14,5638.0,2600.0,,,5311.05,22.0,,5578.0,0.3333333333333333,8.0,0.46666666666666673,2,0,33.0,0.0,1.0,1,1,2.0,0.0,2.0,7.0,17.85,1.8499999999999999,3.564285714285714,14.0,24.0,24.0,13.0,16,24.0,40.0,10.0,-0.41666666666666663,0.22276785714285713,0,0,0.11562500000000009,0,0,5663.05,0.022769708361813624,0.0,0.0,0.0,1.0
uik7aoor,jyza2hen,5c7e4638-30e0-4888-990f-24f3d564c836,be95f527-5ad3-4c59-b86e-16b055696e7d,0,0,0,14,4939.0,3800.0,,,5130.0,9.0,,4789.0,0.9166666666666666,10.0,0.08333333333333337,1,1,23.0,0.0,1.0,1,1,0.0,0.0,0.0,7.0,17.85,1.8499999999999999,3.564285714285714,14.0,24.0,24.0,13.0,16,24.0,40.0,10.0,-0.41666666666666663,0.22276785714285713,0,0,0.11562500000000009,0,0,5274.0,0.022769708361813624,0.0,0.0,0.0,1.0
uik7aoor,8hcohaqe,5c7e4638-30e0-4888-990f-24f3d564c836,a9a9bfc8-0b2a-4983-bcf0-4b86c657dd86,0,0,0,14,4900.0,2600.0,,,5329.5,17.0,,4720.0,1.0,2.0,-0.8,2,1,22.0,0.0,0.0,0,1,1.0,2.0,-1.0,7.0,17.85,1.8499999999999999,3.564285714285714,14.0,24.0,24.0,13.0,16,24.0,40.0,10.0,-0.41666666666666663,0.22276785714285713,0,0,0.11562500000000009,0,0,5601.5,0.022769708361813624,0.0,1.0,0.0,0.0
uik7aoor,4emhkmm9,5c7e4638-30e0-4888-990f-24f3d564c836,78864939-4723-4d4e-a310-1733979e65ba,0,0,0,14,5371.0,3800.0,,,5205.0,8.0,,5301.0,0.25,10.0,0.75,1,0,45.0,0.0,1.0,1,1,1.0,1.0,0.0,7.0,17.85,1.8499999999999999,3.564285714285714,14.0,24.0,24.0,13.0,16,24.0,40.0,10.0,-0.41666666666666663,0.22276785714285713,0,0,0.11562500000000009,0,0,5333.0,0.022769708361813624,0.0,1.0,0.0,0.0
uik7aoor,gfuuq2ww,5c7e4638-30e0-4888-990f-24f3d564c836,f4139a7f-b72e-4c9e-b9f8-776ff8a34dc9,0,0,0,14,4482.0,2600.0,,,5428.95,19.0,,4462.0,0.16666666666666666,3.0,0.13333333333333333,3,1,19.0,0.0,0.0,1,1,0.0,1.0,-1.0,7.0,17.85,1.8499999999999999,3.564285714285714,14.0,24.0,24.0,13.0,16,24.0,40.0,10.0,-0.41666666666666663,0.22276785714285713,0,0,0.11562500000000009,0,0,5732.95,0.022769708361813624,0.0,0.0,0.0,1.0
uik7aoor,cl09qtj4,5c7e4638-30e0-4888-990f-24f3d564c836,ce2794fe-8d67-4dc5-a1e4-fda7496f0027,0,0,0,14,4825.0,3800.0,,,5239.0,12.0,,4715.0,0.9166666666666666,1.0,-0.8166666666666667,5,0,44.0,0.0,0.0,1,1,0.0,0.0,0.0,7.0,17.85,1.8499999999999999,3.564285714285714,14.0,24.0,24.0,13.0,16,24.0,40.0,10.0,-0.41666666666666663,0.22276785714285713,0,0,0.11562500000000009,0,0,5431.0,0.022769708361813624,0.0,0.0,1.0,0.0
uik7aoor,2i53nqi2,5c7e4638-30e0-4888-990f-24f3d564c836,336243e5-56a5-47f6-9862-1a9c250841e8,0,0,0,14,5674.0,2600.0,,,5399.5,22.0,,5664.0,0.08333333333333333,10.0,0.9166666666666666,1,1,22.0,0.0,0.0,0,1,1.0,1.0,0.0,7.0,17.85,1.8499999999999999,3.564285714285714,14.0,24.0,24.0,13.0,16,24.0,40.0,10.0,-0.41666666666666663,0.22276785714285713,0,0,0.11562500000000009,0,0,5751.5,0.022769708361813624,0.0,0.0,0.0,1.0
uik7aoor,wffepf9u,5c7e4638-30e0-4888-990f-24f3d564c836,4e3199a4-5b9d-45d0-980a-96571662a0a8,0,0,0,14,5134.0,3800.0,,,4943.0,10.0,,5074.0,0.3333333333333333,8.0,0.46666666666666673,1,1,44.0,0.0,1.0,1,1,2.0,2.0,0.0,7.0,17.85,1.8499999999999999,3.564285714285714,14.0,24.0,24.0,13.0,16,24.0,40.0,10.0,-0.41666666666666663,0.22276785714285713,0,0,0.11562500000000009,0,0,5103.0,0.022769708361813624,0.0,0.0,0.0,1.0
uik7aoor,b2sjpg82,418c69c6-ec34-43cb-8592-f2fd1b6fcf4f,3f6f9d47-f2e6-44f6-8da9-2c8a16a3df63,1,1,0,14,5772.0,2600.0,,,5447.0,20.0,1.0,5702.0,0.5833333333333334,3.0,-0.2833333333333334,3,0,22.0,0.0,0.0,1,1,1.0,0.0,1.0,4.0,43.5,27.5,31.5,11.0,80.0,80.0,11.0,16,80.0,33.0,19.0,-0.8625,1.96875,0,0,1.71875,1,0,5767.0,0.020125569476082007,0.0,0.0,1.0,0.0
uik7aoor,juhy06e8,418c69c6-ec34-43cb-8592-f2fd1b6fcf4f,e35674dc-ec96-4955-9641-275f1f5a2902,1,1,0,14,4773.0,3800.0,,,5150.0,5.0,0.0,4693.0,0.6666666666666666,8.0,0.13333333333333341,1,1,66.0,0.0,0.0,1,1,0.0,0.0,0.0,4.0,43.5,27.5,31.5,11.0,80.0,80.0,11.0,16,80.0,33.0,19.0,-0.8625,1.96875,0,0,1.71875,1,0,5230.0,0.020125569476082007,0.0,0.0,0.0,1.0
uik7aoor,hliggtnp,418c69c6-ec34-43cb-8592-f2fd1b6fcf4f,fde48bd3-7bd3-4e77-a95f-25abeea55ed0,1,1,0,14,5676.0,2600.0,,,5405.95,14.0,0.0,5556.0,1.0,3.0,-0.7,3,1,33.0,1.0,1.0,1,1,1.0,2.0,-1.0,4.0,43.5,27.5,31.5,11.0,80.0,80.0,11.0,16,80.0,33.0,19.0,-0.8625,1.96875,0,0,1.71875,1,0,5629.95,0.020125569476082007,0.0,1.0,0.0,0.0
uik7aoor,7y6562pk,418c69c6-ec34-43cb-8592-f2fd1b6fcf4f,022bbf5d-3d6e-47c2-9a2a-66d712d45701,1,1,0,14,4817.0,3800.0,,,5067.0,11.0,1.0,4787.0,0.25,9.0,0.65,1,1,45.0,0.0,1.0,0,1,1.0,0.0,1.0,4.0,43.5,27.5,31.5,11.0,80.0,80.0,11.0,16,80.0,33.0,19.0,-0.8625,1.96875,0,0,1.71875,1,0,5243.0,0.020125569476082007,0.0,0.0,1.0,0.0
uik7aoor,lk5oyxpy,418c69c6-ec34-43cb-8592-f2fd1b6fcf4f,376885f3-c47c-49f0-a0be-9a38c1b06b80,1,1,0,14,4459.0,2600.0,,,5147.0,28.0,0.0,4419.0,0.3333333333333333,10.0,0.6666666666666667,1,0,33.0,1.0,0.0,1,1,0.0,0.0,0.0,4.0,43.5,27.5,31.5,11.0,80.0,80.0,11.0,16,80.0,33.0,19.0,-0.8625,1.96875,0,0,1.71875,1,0,5595.0,0.020125569476082007,0.0,0.0,0.0,1.0
uik7aoor,tgar6z2d,418c69c6-ec34-43cb-8592-f2fd1b6fcf4f,9f70b144-bb13-4260-831f-f9cb21838f0b,1,1,0,14,4759.0,3800.0,,,5112.0,18.0,1.0,4699.0,0.5,9.0,0.4,4,1,22.0,0.0,1.0,1,1,0.0,0.0,0.0,4.0,43.5,27.5,31.5,11.0,80.0,80.0,11.0,16,80.0,33.0,19.0,-0.8625,1.96875,0,0,1.71875,1,0,5400.0,0.020125569476082007,0.0,0.0,0.0,1.0
uik7aoor,z3reux71,418c69c6-ec34-43cb-8592-f2fd1b6fcf4f,9d53611f-f803-450c-bed2-ad0697c26298,1,1,0,14,5706.0,2600.0,,,5453.05,15.0,0.0,5636.0,0.5833333333333334,9.0,0.31666666666666665,1,1,21.0,0.0,0.0,0,1,1.0,2.0,-1.0,4.0,43.5,27.5,31.5,11.0,80.0,80.0,11.0,16,80.0,33.0,19.0,-0.8625,1.96875,0,0,1.71875,1,0,5693.05,0.020125569476082007,0.0,0.0,0.0,1.0
uik7aoor,a12rmbju,418c69c6-ec34-43cb-8592-f2fd1b6fcf4f,d08bcb2b-8529-4fb2-8df1-d0ba2880bbed,1,1,0,14,5027.0,3800.0,,,5198.0,9.0,1.0,4907.0,1.0,4.0,-0.6,2,0,23.0,1.0,1.0,1,1,0.0,0.0,0.0,4.0,43.5,27.5,31.5,11.0,80.0,80.0,11.0,16,80.0,33.0,19.0,-0.8625,1.96875,0,0,1.71875,1,0,5342.0,0.020125569476082007,0.0,0.0,0.0,1.0
uik7aoor,nwrelnt3,5c7e4638-30e0-4888-990f-24f3d564c836,7101c7b2-cced-4f23-8b1e-af06300a3134,0,0,0,15,5638.0,2600.0,,,5490.05,22.0,,5578.0,0.3333333333333333,8.0,0.46666666666666673,2,0,33.0,0.0,1.0,1,1,1.0,1.0,0.0,5.0,9.6,1.6,1.6,10.0,11.0,11.0,8.0,8,14.0,24.0,,-0.2857142857142857,0.2,0,0,0.19999999999999996,0,0,5666.05,0.022803884711779448,0.0,0.0,0.0,1.0
uik7aoor,jyza2hen,5c7e4638-30e0-4888-990f-24f3d564c836,be95f527-5ad3-4c59-b86e-16b055696e7d,0,0,0,15,4939.0,3800.0,,,5182.0,11.0,,4789.0,0.9166666666666666,10.0,0.08333333333333337,1,1,23.0,0.0,1.0,1,1,2.0,0.0,2.0,5.0,9.6,1.6,1.6,10.0,11.0,11.0,8.0,8,14.0,24.0,,-0.2857142857142857,0.2,0,0,0.19999999999999996,0,0,5270.0,0.022803884711779448,0.0,0.0,0.0,1.0
uik7aoor,8hcohaqe,5c7e4638-30e0-4888-990f-24f3d564c836,a9a9bfc8-0b2a-4983-bcf0-4b86c657dd86,0,0,0,15,4900.0,2600.0,,,5474.5,16.0,,4720.0,1.0,2.0,-0.8,2,1,22.0,0.0,0.0,0,1,0.0,1.0,-1.0,5.0,9.6,1.6,1.6,10.0,11.0,11.0,8.0,8,14.0,24.0,,-0.2857142857142857,0.2,0,0,0.19999999999999996,0,0,5602.5,0.022803884711779448,0.0,1.0,0.0,0.0
uik7aoor,4emhkmm9,5c7e4638-30e0-4888-990f-24f3d564c836,78864939-4723-4d4e-a310-1733979e65ba,0,0,0,15,5371.0,3800.0,,,5269.0,8.0,,5301.0,0.25,10.0,0.75,1,0,45.0,0.0,1.0,1,1,0.0,0.0,0.0,5.0,9.6,1.6,1.6,10.0,11.0,11.0,8.0,8,14.0,24.0,,-0.2857142857142857,0.2,0,0,0.19999999999999996,0,0,5333.0,0.022803884711779448,0.0,1.0,0.0,0.0
uik7aoor,gfuuq2ww,5c7e4638-30e0-4888-990f-24f3d564c836,f4139a7f-b72e-4c9e-b9f8-776ff8a34dc9,0,0,0,15,4482.0,2600.0,,,5580.95,19.0,,4462.0,0.16666666666666666,3.0,0.13333333333333333,3,1,19.0,0.0,0.0,1,1,0.0,0.0,0.0,5.0,9.6,1.6,1.6,10.0,11.0,11.0,8.0,8,14.0,24.0,,-0.2857142857142857,0.2,0,0,0.19999999999999996,0,0,5732.95,0.022803884711779448,0.0,0.0,0.0,1.0
uik7aoor,cl09qtj4,5c7e4638-30e0-4888-990f-24f3d564c836,ce2794fe-8d67-4dc5-a1e4-fda7496f0027,0,0,0,15,4825.0,3800.0,,,5324.0,13.0,,4715.0,0.9166666666666666,1.0,-0.8166666666666667,5,0,44.0,0.0,0.0,1,1,1.0,0.0,1.0,5.0,9.6,1.6,1.6,10.0,11.0,11.0,8.0,8,14.0,24.0,,-0.2857142857142857,0.2,0,0,0.19999999999999996,0,0,5428.0,0.022803884711779448,0.0,0.0,1.0,0.0
uik7aoor,2i53nqi2,5c7e4638-30e0-4888-990f-24f3d564c836,336243e5-56a5-47f6-9862-1a9c250841e8,0,0,0,15,5674.0,2600.0,,,5575.5,22.0,,5664.0,0.08333333333333333,10.0,0.9166666666666666,1,1,22.0,0.0,0.0,0,1,0.0,0.0,0.0,5.0,9.6,1.6,1.6,10.0,11.0,11.0,8.0,8,14.0,24.0,,-0.2857142857142857,0.2,0,0,0.19999999999999996,0,0,5751.5,0.022803884711779448,0.0,0.0,0.0,1.0
uik7aoor,wffepf9u,5c7e4638-30e0-4888-990f-24f3d564c836,4e3199a4-5b9d-45d0-980a-96571662a0a8,0,0,0,15,5134.0,3800.0,,,5042.0,8.0,,5074.0,0.3333333333333333,8.0,0.46666666666666673,1,1,44.0,0.0,1.0,1,1,1.0,3.0,-2.0,5.0,9.6,1.6,1.6,10.0,11.0,11.0,8.0,8,14.0,24.0,,-0.2857142857142857,0.2,0,0,0.19999999999999996,0,0,5106.0,0.022803884711779448,0.0,0.0,0.0,1.0
uik7aoor,b2sjpg82,418c69c6-ec34-43cb-8592-f2fd1b6fcf4f,3f6f9d47-f2e6-44f6-8da9-2c8a16a3df63,1,1,0,15,5772.0,2600.0,,,5626.0,19.0,1.0,5702.0,0.5833333333333334,3.0,-0.2833333333333334,3,0,22.0,0.0,0.0,1,1,0.0,1.0,-1.0,2.0,20.5,12.5,12.5,19.0,22.0,22.0,19.0,8,11.0,80.0,,0.7272727272727273,1.5625,0,0,1.5625,1,0,5778.0,0.020267938496583145,0.0,0.0,1.0,0.0
uik7aoor,juhy06e8,418c69c6-ec34-43cb-8592-f2fd1b6fcf4f,e35674dc-ec96-4955-9641-275f1f5a2902,1,1,0,15,4773.0,3800.0,,,5190.0,5.0,0.0,4693.0,0.6666666666666666,8.0,0.13333333333333341,1,1,66.0,0.0,0.0,1,1,0.0,0.0,0.0,2.0,20.5,12.5,12.5,19.0,22.0,22.0,19.0,8,11.0,80.0,,0.7272727272727273,1.5625,0,0,1.5625,1,0,5230.0,0.020267938496583145,0.0,0.0,0.0,1.0
uik7aoor,hliggtnp,418c69c6-ec34-43cb-8592-f2fd1b6fcf4f,fde48bd3-7bd3-4e77-a95f-25abeea55ed0,1,1,0,15,5676.0,2600.0,,,5495.95,15.0,0.0,5556.0,1.0,3.0,-0.7,3,1,33.0,1.0,1.0,1,1,1.0,0.0,1.0,2.0,20.5,12.5,12.5,19.0,22.0,22.0,19.0,8,11.0,80.0,,0.7272727272727273,1.5625,0,0,1.5625,1,0,5615.95,0.020267938496583145,0.0,1.0,0.0,0.0
uik7aoor,7y6562pk,418c69c6-ec34-43cb-8592-f2fd1b6fcf4f,022bbf5d-3d6e-47c2-9a2a-66d712d45701,1,1,0,15,4817.0,3800.0,,,5155.0,11.0,1.0,4787.0,0.25,9.0,0.65,1,1,45.0,0.0,1.0,0,1,0.0,0.0,0.0,2.0,20.5,12.5,12.5,19.0,22.0,22.0,19.0,8,11.0,80.0,,0.7272727272727273,1.5625,0,0,1.5625,1,0,5243.0,0.020267938496583145,0.0,0.0,1.0,0.0
uik7aoor,lk5oyxpy,418c69c6-ec34-43cb-8592-f2fd1b6fcf4f,376885f3-c47c-49f0-a0be-9a38c1b06b80,1,1,0,15,4459.0,2600.0,,,5371.0,28.0,0.0,4419.0,0.3333333333333333,10.0,0.6666666666666667,1,0,33.0,1.0,0.0,1,1,0.0,0.0,0.0,2.0,20.5,12.5,12.5,19.0,22.0,22.0,19.0,8,11.0,80.0,,0.7272727272727273,1.5625,0,0,1.5625,1,0,5595.0,0.020267938496583145,0.0,0.0,0.0,1.0
uik7aoor,tgar6z2d,418c69c6-ec34-43cb-8592-f2fd1b6fcf4f,9f70b144-bb13-4260-831f-f9cb21838f0b,1,1,0,15,4759.0,3800.0,,,5256.0,18.0,1.0,4699.0,0.5,9.0,0.4,4,1,22.0,0.0,1.0,1,1,0.0,0.0,0.0,2.0,20.5,12.5,12.5,19.0,22.0,22.0,19.0,8,11.0,80.0,,0.7272727272727273,1.5625,0,0,1.5625,1,0,5400.0,0.020267938496583145,0.0,0.0,0.0,1.0
uik7aoor,z3reux71,418c69c6-ec34-43cb-8592-f2fd1b6fcf4f,9d53611f-f803-450c-bed2-ad0697c26298,1,1,0,15,5706.0,2600.0,,,5576.05,15.0,0.0,5636.0,0.5833333333333334,9.0,0.31666666666666665,1,1,21.0,0.0,0.0,0,1,1.0,1.0,0.0,2.0,20.5,12.5,12.5,19.0,22.0,22.0,19.0,8,11.0,80.0,,0.7272727272727273,1.5625,0,0,1.5625,1,0,5696.05,0.020267938496583145,0.0,0.0,0.0,1.0
uik7aoor,a12rmbju,418c69c6-ec34-43cb-8592-f2fd1b6fcf4f,d08bcb2b-8529-4fb2-8df1-d0ba2880bbed,1,1,0,15,5027.0,3800.0,,,5270.0,9.0,1.0,4907.0,1.0,4.0,-0.6,2,0,23.0,1.0,1.0,1,1,0.0,0.0,0.0,2.0,20.5,12.5,12.5,19.0,22.0,22.0,19.0,8,11.0,80.0,,0.7272727272727273,1.5625,0,0,1.5625,1,0,5342.0,0.020267938496583145,0.0,0.0,0.0,1.0
uik7aoor,nwrelnt3,025fce5c-ab70-4acb-9fe2-39de4e4b9b23,83b1ad1a-5e72-49da-be0b-ce284a3bcbbe,0,0,0,1,5638.0,2600.0,,,2120.0,24.0,,5578.0,0.3333333333333333,8.0,0.46666666666666673,2,0,33.0,0.0,1.0,1,2,4.0,0.0,4.0,9.0,119.22222222222223,-0.7777777777777778,3.4444444444444446,120.0,130.0,130.0,110.0,120,,,115.0,,0.028703703703703707,0,0,-0.006481481481481429,0,0,5000.0,0.00085625,0.0,0.0,0.0,1.0
uik7aoor,jyza2hen,025fce5c-ab70-4acb-9fe2-39de4e4b9b23,2c841647-122a-46d5-9633-6e214e3faf48,0,0,0,1,4939.0,3800.0,,,4030.0,8.0,,4789.0,0.9166666666666666,10.0,0.08333333333333337,1,1,23.0,0.0,1.0,1,2,0.0,2.0,-2.0,9.0,119.22222222222223,-0.7777777777777778,3.4444444444444446,120.0,130.0,130.0,110.0,120,,,115.0,,0.028703703703703707,0,0,-0.006481481481481429,0,0,4990.0,0.00085625,0.0,0.0,0.0,1.0
uik7aoor,8hcohaqe,025fce5c-ab70-4acb-9fe2-39de4e4b9b23,ebbc9545-d10c-4057-ad2d-f3dbdd5f1697,0,0,0,1,4900.0,2600.0,,,2843.0,18.0,,4720.0,1.0,2.0,-0.8,2,1,22.0,0.0,0.0,0,2,1.0,3.0,-2.0,9.0,119.22222222222223,-0.7777777777777778,3.4444444444444446,120.0,130.0,130.0,110.0,120,,,115.0,,0.028703703703703707,0,0,-0.006481481481481429,0,0,5003.0,0.00085625,1.0,0.0,0.0,0.0
uik7aoor,4emhkmm9,025fce5c-ab70-4acb-9fe2-39de4e4b9b23,8a3eecb8-7983-45dc-b396-ce368aa3f2c5,0,0,0,1,5371.0,3800.0,,,3800.0,10.0,,5301.0,0.25,10.0,0.75,1,0,45.0,0.0,1.0,1,2,0.0,0.0,0.0,9.0,119.22222222222223,-0.7777777777777778,3.4444444444444446,120.0,130.0,130.0,110.0,120,,,115.0,,0.028703703703703707,0,0,-0.006481481481481429,0,0,5000.0,0.00085625,0.5,0.5,0.0,0.0
uik7aoor,gfuuq2ww,025fce5c-ab70-4acb-9fe2-39de4e4b9b23,03cf0898-3735-4660-9b33-434f737e0fec,0,0,0,1,4482.0,2600.0,,,2600.0,20.0,,4462.0,0.16666666666666666,3.0,0.13333333333333333,3,1,19.0,0.0,0.0,1,2,0.0,0.0,0.0,9.0,119.22222222222223,-0.7777777777777778,3.4444444444444446,120.0,130.0,130.0,110.0,120,,,115.0,,0.028703703703703707,0,0,-0.006481481481481429,0,0,5000.0,0.00085625,0.0,0.0,0.0,1.0
uik7aoor,cl09qtj4,025fce5c-ab70-4acb-9fe2-39de4e4b9b23,9a6e0a93-9aee-4f8b-bf1f-d52d9992b2f9,0,0,0,1,4825.0,3800.0,,,3670.0,11.0,,4715.0,0.9166666666666666,1.0,-0.8166666666666667,5,0,44.0,0.0,0.0,1,2,1.0,0.0,1.0,9.0,119.22222222222223,-0.7777777777777778,3.4444444444444446,120.0,130.0,130.0,110.0,120,,,115.0,,0.028703703703703707,0,0,-0.006481481481481429,0,0,4990.0,0.00085625,0.0,0.0,0.0,1.0
uik7aoor,2i53nqi2,025fce5c-ab70-4acb-9fe2-39de4e4b9b23,69ea2d1d-25ae-4bfe-bb48-33720be99bd9,0,0,0,1,5674.0,2600.0,,,2478.0,21.0,,5664.0,0.08333333333333333,10.0,0.9166666666666666,1,1,22.0,0.0,0.0,0,2,1.0,0.0,1.0,9.0,119.22222222222223,-0.7777777777777778,3.4444444444444446,120.0,130.0,130.0,110.0,120,,,115.0,,0.028703703703703707,0,0,-0.006481481481481429,0,0,4998.0,0.00085625,0.0,0.0,0.0,1.0
uik7aoor,wffepf9u,025fce5c-ab70-4acb-9fe2-39de4e4b9b23,e6242dc8-5271-4609-86d8-52f6d30c484f,0,0,0,1,5134.0,3800.0,,,4059.0,8.0,,5074.0,0.3333333333333333,8.0,0.46666666666666673,1,1,44.0,0.0,1.0,1,2,2.0,4.0,-2.0,9.0,119.22222222222223,-0.7777777777777778,3.4444444444444446,120.0,130.0,130.0,110.0,120,,,115.0,,0.028703703703703707,0,0,-0.006481481481481429,0,0,5019.0,0.00085625,0.0,1.0,0.0,0.0
uik7aoor,b2sjpg82,03af9f8b-508e-452c-9c35-0eeba0e3b3cc,5ce597fa-5f3d-45d1-9de6-95be128b374b,1,1,0,1,5772.0,2600.0,,,2605.0,20.0,1.0,5702.0,0.5833333333333334,3.0,-0.2833333333333334,3,0,22.0,0.0,0.0,1,2,1.0,1.0,0.0,4.0,124.25,4.25,4.25,122.0,130.0,130.0,120.0,120,,,123.0,,0.035416666666666666,0,0,0.035416666666666666,0,0,5005.0,0.0007,0.0,0.0,0.0,1.0
uik7aoor,juhy06e8,03af9f8b-508e-452c-9c35-0eeba0e3b3cc,6e0cda1c-f51b-4272-8648-67e646ea1f31,1,1,0,1,4773.0,3800.0,,,3800.0,10.0,0.0,4693.0,0.6666666666666666,8.0,0.13333333333333341,1,1,66.0,0.0,0.0,1,2,0.0,0.0,0.0,4.0,124.25,4.25,4.25,122.0,130.0,130.0,120.0,120,,,123.0,,0.035416666666666666,0,0,0.035416666666666666,0,0,5000.0,0.0007,0.0,0.0,0.0,1.0
uik7aoor,hliggtnp,03af9f8b-508e-452c-9c35-0eeba0e3b3cc,3fe9607c-4723-4d14-a5b2-7580b114fb2f,1,1,0,1,5676.0,2600.0,,,2478.0,21.0,0.0,5556.0,1.0,3.0,-0.7,3,1,33.0,1.0,1.0,1,2,1.0,0.0,1.0,4.0,124.25,4.25,4.25,122.0,130.0,130.0,120.0,120,,,123.0,,0.035416666666666666,0,0,0.035416666666666666,0,0,4998.0,0.0007,0.0,1.0,0.0,0.0
uik7aoor,7y6562pk,03af9f8b-508e-452c-9c35-0eeba0e3b3cc,4b39ad0b-8a75-4ba9-9d24-05dd32fad900,1,1,0,1,4817.0,3800.0,,,3800.0,10.0,0.0,4787.0,0.25,9.0,0.65,1,1,45.0,0.0,1.0,0,2,0.0,0.0,0.0,4.0,124.25,4.25,4.25,122.0,130.0,130.0,120.0,120,,,123.0,,0.035416666666666666,0,0,0.035416666666666666,0,0,5000.0,0.0007,0.0,0.0,0.0,1.0
uik7aoor,lk5oyxpy,03af9f8b-508e-452c-9c35-0eeba0e3b3cc,8fc4cd9a-1fbb-43de-85ce-82cb99d02a2a,1,1,0,1,4459.0,2600.0,,,2600.0,20.0,1.0,4419.0,0.3333333333333333,10.0,0.6666666666666667,1,0,33.0,1.0,0.0,1,2,0.0,0.0,0.0,4.0,124.25,4.25,4.25,122.0,130.0,130.0,120.0,120,,,123.0,,0.035416666666666666,0,0,0.035416666666666666,0,0,5000.0,0.0007,0.0,0.0,0.0,1.0
uik7aoor,tgar6z2d,03af9f8b-508e-452c-9c35-0eeba0e3b3cc,9697f7a1-e2e7-4427-8b7e-fb165a1ab72c,1,1,0,1,4759.0,3800.0,,,3545.0,12.0,1.0,4699.0,0.5,9.0,0.4,4,1,22.0,0.0,1.0,1,2,2.0,0.0,2.0,4.0,124.25,4.25,4.25,122.0,130.0,130.0,120.0,120,,,123.0,,0.035416666666666666,0,0,0.035416666666666666,0,0,4985.0,0.0007,0.0,0.0,0.0,1.0
uik7aoor,z3reux71,03af9f8b-508e-452c-9c35-0eeba0e3b3cc,e467cb8d-10d2-48db-935f-2418d69da971,1,1,0,1,5706.0,2600.0,,,2720.0,19.0,0.0,5636.0,0.5833333333333334,9.0,0.31666666666666665,1,1,21.0,0.0,0.0,0,2,0.0,1.0,-1.0,4.0,124.25,4.25,4.25,122.0,130.0,130.0,120.0,120,,,123.0,,0.035416666666666666,0,0,0.035416666666666666,0,0,5000.0,0.0007,0.0,0.0,1.0,0.0
uik7aoor,a12rmbju,03af9f8b-508e-452c-9c35-0eeba0e3b3cc,53beb2da-e31f-4578-baa8-2d398cbc80d4,1,1,0,1,5027.0,3800.0,,,4052.0,8.0,1.0,4907.0,1.0,4.0,-0.6,2,0,23.0,1.0,1.0,1,2,0.0,2.0,-2.0,4.0,124.25,4.25,4.25,122.0,130.0,130.0,120.0,120,,,123.0,,0.035416666666666666,0,0,0.035416666666666666,0,0,5012.0,0.0007,0.0,0.0,0.0,1.0
uik7aoor,nwrelnt3,025fce5c-ab70-4acb-9fe2-39de4e4b9b23,83b1ad1a-5e72-49da-be0b-ce284a3bcbbe,0,0,0,2,5638.0,2600.0,,,2208.0,24.0,,5578.0,0.3333333333333333,8.0,0.46666666666666673,2,0,33.0,0.0,1.0,1,2,1.0,1.0,0.0,5.0,114.4,2.4,2.8,115.0,120.0,120.0,111.0,112,120.0,,106.0,-0.04166666666666663,0.024999999999999998,0,0,0.02142857142857148,0,0,4896.0,0.0033780364372469635,0.0,0.0,0.0,1.0
uik7aoor,jyza2hen,025fce5c-ab70-4acb-9fe2-39de4e4b9b23,2c841647-122a-46d5-9633-6e214e3faf48,0,0,0,2,4939.0,3800.0,,,4066.0,8.0,,4789.0,0.9166666666666666,10.0,0.08333333333333337,1,1,23.0,0.0,1.0,1,2,1.0,1.0,0.0,5.0,114.4,2.4,2.8,115.0,120.0,120.0,111.0,112,120.0,,106.0,-0.04166666666666663,0.024999999999999998,0,0,0.02142857142857148,0,0,4962.0,0.0033780364372469635,0.0,0.0,0.0,1.0
uik7aoor,8hcohaqe,025fce5c-ab70-4acb-9fe2-39de4e4b9b23,ebbc9545-d10c-4057-ad2d-f3dbdd5f1697,0,0,0,2,4900.0,2600.0,,,2915.0,18.0,,4720.0,1.0,2.0,-0.8,2,1,22.0,0.0,0.0,0,2,0.0,0.0,0.0,5.0,114.4,2.4,2.8,115.0,120.0,120.0,111.0,112,120.0,,106.0,-0.04166666666666663,0.024999999999999998,0,0,0.02142857142857148,0,0,4931.0,0.0033780364372469635,1.0,0.0,0.0,0.0
uik7aoor,4emhkmm9,025fce5c-ab70-4acb-9fe2-39de4e4b9b23,8a3eecb8-7983-45dc-b396-ce368aa3f2c5,0,0,0,2,5371.0,3800.0,,,3960.0,9.0,,5301.0,0.25,10.0,0.75,1,0,45.0,0.0,1.0,1,2,0.0,1.0,-1.0,5.0,114.4,2.4,2.8,115.0,120.0,120.0,111.0,112,120.0,,106.0,-0.04166666666666663,0.024999999999999998,0,0,0.02142857142857148,0,0,4968.0,0.0033780364372469635,0.5,0.5,0.0,0.0
uik7aoor,gfuuq2ww,025fce5c-ab70-4acb-9fe2-39de4e4b9b23,03cf0898-3735-4660-9b33-434f737e0fec,0,0,0,2,4482.0,2600.0,,,2565.0,21.0,,4462.0,0.16666666666666666,3.0,0.13333333333333333,3,1,19.0,0.0,0.0,1,2,1.0,0.0,1.0,5.0,114.4,2.4,2.8,115.0,120.0,120.0,111.0,112,120.0,,106.0,-0.04166666666666663,0.024999999999999998,0,0,0.02142857142857148,0,0,4917.0,0.0033780364372469635,0.0,0.0,0.0,1.0
uik7aoor,cl09qtj4,025fce5c-ab70-4acb-9fe2-39de4e4b9b23,9a6e0a93-9aee-4f8b-bf1f-d52d9992b2f9,0,0,0,2,4825.0,3800.0,,,3827.0,10.0,,4715.0,0.9166666666666666,1.0,-0.8166666666666667,5,0,44.0,0.0,0.0,1,2,1.0,2.0,-1.0,5.0,114.4,2.4,2.8,115.0,120.0,120.0,111.0,112,120.0,,106.0,-0.04166666666666663,0.024999999999999998,0,0,0.02142857142857148,0,0,4947.0,0.0033780364372469635,0.0,0.0,0.0,1.0
uik7aoor,2i53nqi2,025fce5c-ab70-4acb-9fe2-39de4e4b9b23,69ea2d1d-25ae-4bfe-bb48-33720be99bd9,0,0,0,2,5674.0,2600.0,,,2448.0,22.0,,5664.0,0.08333333333333333,10.0,0.9166666666666666,1,1,22.0,0.0,0.0,0,2,1.0,0.0,1.0,5.0,114.4,2.4,2.8,115.0,120.0,120.0,111.0,112,120.0,,106.0,-0.04166666666666663,0.024999999999999998,0,0,0.02142857142857148,0,0,4912.0,0.0033780364372469635,0.0,0.0,0.0,1.0
uik7aoor,wffepf9u,025fce5c-ab70-4acb-9fe2-39de4e4b9b23,e6242dc8-5271-4609-86d8-52f6d30c484f,0,0,0,2,5134.0,3800.0,,,4091.0,8.0,,5074.0,0.3333333333333333,8.0,0.46666666666666673,1,1,44.0,0.0,1.0,1,2,0.0,0.0,0.0,5.0,114.4,2.4,2.8,115.0,120.0,120.0,111.0,112,120.0,,106.0,-0.04166666666666663,0.024999999999999998,0,0,0.02142857142857148,0,0,4987.0,0.0033780364372469635,0.0,1.0,0.0,0.0
uik7aoor,b2sjpg82,03af9f8b-508e-452c-9c35-0eeba0e3b3cc,5ce597fa-5f3d-45d1-9de6-95be128b374b,1,1,0,2,5772.0,2600.0,,,2686.0,20.0,1.0,5702.0,0.5833333333333334,3.0,-0.2833333333333334,3,0,22.0,0.0,0.0,1,2,1.0,1.0,0.0,4.0,117.5,5.5,6.5,123.0,110.0,123.0,110.0,112,122.0,,122.0,0.008196721311475308,0.05803571428571429,0,0,0.049107142857142856,0,0,4926.0,0.0021697874493927126,0.0,0.0,0.0,1.0
uik7aoor,juhy06e8,03af9f8b-508e-452c-9c35-0eeba0e3b3cc,6e0cda1c-f51b-4272-8648-67e646ea1f31,1,1,0,2,4773.0,3800.0,,,3835.0,10.0,0.0,4693.0,0.6666666666666666,8.0,0.13333333333333341,1,1,66.0,0.0,0.0,1,2,1.0,1.0,0.0,4.0,117.5,5.5,6.5,123.0,110.0,123.0,110.0,112,122.0,,122.0,0.008196721311475308,0.05803571428571429,0,0,0.049107142857142856,0,0,4955.0,0.0021697874493927126,0.0,0.0,0.0,1.0
uik7aoor,hliggtnp,03af9f8b-508e-452c-9c35-0eeba0e3b3cc,3fe9607c-4723-4d14-a5b2-7580b114fb2f,1,1,0,2,5676.0,2600.0,,,2562.0,21.0,0.0,5556.0,1.0,3.0,-0.7,3,1,33.0,1.0,1.0,1,2,0.0,0.0,0.0,4.0,117.5,5.5,6.5,123.0,110.0,123.0,110.0,112,122.0,,122.0,0.008196721311475308,0.05803571428571429,0,0,0.049107142857142856,0,0,4914.0,0.0021697874493927126,0.0,1.0,0.0,0.0
uik7aoor,7y6562pk,03af9f8b-508e-452c-9c35-0eeba0e3b3cc,4b39ad0b-8a75-4ba9-9d24-05dd32fad900,1,1,0,2,4817.0,3800.0,,,3840.0,10.0,0.0,4787.0,0.25,9.0,0.65,1,1,45.0,0.0,1.0,0,2,0.0,0.0,0.0,4.0,117.5,5.5,6.5,123.0,110.0,123.0,110.0,112,122.0,,122.0,0.008196721311475308,0.05803571428571429,0,0,0.049107142857142856,0,0,4960.0,0.0021697874493927126,0.0,0.0,0.0,1.0
uik7aoor,lk5oyxpy,03af9f8b-508e-452c-9c35-0eeba0e3b3cc,8fc4cd9a-1fbb-43de-85ce-82cb99d02a2a,1,1,0,2,4459.0,2600.0,,,2680.0,20.0,1.0,4419.0,0.3333333333333333,10.0,0.6666666666666667,1,0,33.0,1.0,0.0,1,2,0.0,0.0,0.0,4.0,117.5,5.5,6.5,123.0,110.0,123.0,110.0,112,122.0,,122.0,0.008196721311475308,0.05803571428571429,0,0,0.049107142857142856,0,0,4920.0,0.0021697874493927126,0.0,0.0,0.0,1.0
