session_code,participant_code,market_uuid,trader_uuid,gamified,hybrid,algo_present,trading_day,payoff,initial_cash,forecast,forecast_confidence,current_cash,num_shares,algorithm_belief,trade_payoff,fin_quiz_score,self_assessment,overconfidence,cq_attempt_count,gender_female,age,finance_course,trading_experience,high_education,repetition,n_buys,n_sells,net_position,n_trades_market,avg_trade_price,avg_mispricing,avg_abs_mispricing,closing_price,opening_price,max_price,min_price,fundamental_value,price_L1,price_L2,price_next,return,abs_mispricing_ratio,surge,crash,normalized_mispricing,bubble_period,bubble_start,wealth_day,gini,feedback_flag,speculator_flag,fundamental_flag,other_flag
uik7aoor,b2sjpg82,418c69c6-ec34-43cb-8592-f2fd1b6fcf4f,3f6f9d47-f2e6-44f6-8da9-2c8a16a3df63,1,1,0,1,5772.0,2600.0,,,2620.0,20.0,,5702.0,0.5833333333333334,3.0,-0.2833333333333334,3,0,22.0,0.0,0.0,1,1,1.0,1.0,0.0,4.0,127.5,7.5,12.5,150.0,130.0,150.0,110.0,120,,,170.0,,0.10416666666666667,0,0,0.0625,0,0,5020.0,0.0029910269192422734,0.0,0.0,1.0,0.0
uik7aoor,juhy06e8,418c69c6-ec34-43cb-8592-f2fd1b6fcf4f,e35674dc-ec96-4955-9641-275f1f5a2902,1,1,0,1,4773.0,3800.0,,,3910.0,9.0,,4693.0,0.6666666666666666,8.0,0.13333333333333341,1,1,66.0,0.0,0.0,1,1,0.0,1.0,-1.0,4.0,127.5,7.5,12.5,150.0,130.0,150.0,110.0,120,,,170.0,,0.10416666666666667,0,0,0.0625,0,0,4990.0,0.0029910269192422734,0.0,0.0,0.0,1.0
uik7aoor,hliggtnp,418c69c6-ec34-43cb-8592-f2fd1b6fcf4f,fde48bd3-7bd3-4e77-a95f-25abeea55ed0,1,1,0,1,5676.0,2600.0,,,2630.0,20.0,,5556.0,1.0,3.0,-0.7,3,1,33.0,1.0,1.0,1,1,1.0,1.0,0.0,4.0,127.5,7.5,12.5,150.0,130.0,150.0,110.0,120,,,170.0,,0.10416666666666667,0,0,0.0625,0,0,5030.0,0.0029910269192422734,0.0,1.0,0.0,0.0
uik7aoor,7y6562pk,418c69c6-ec34-43cb-8592-f2fd1b6fcf4f,022bbf5d-3d6e-47c2-9a2a-66d712d45701,1,1,0,1,4817.0,3800.0,,,3920.0,9.0,,4787.0,0.25,9.0,0.65,1,1,45.0,0.0,1.0,0,1,0.0,1.0,-1.0,4.0,127.5,7.5,12.5,150.0,130.0,150.0,110.0,120,,,170.0,,0.10416666666666667,0,0,0.0625,0,0,5000.0,0.0029910269192422734,0.0,0.0,1.0,0.0
uik7aoor,lk5oyxpy,418c69c6-ec34-43cb-8592-f2fd1b6fcf4f,376885f3-c47c-49f0-a0be-9a38c1b06b80,1,1,0,1,4459.0,2600.0,,,2600.0,20.0,,4419.0,0.3333333333333333,10.0,0.6666666666666667,1,0,33.0,1.0,0.0,1,1,0.0,0.0,0.0,4.0,127.5,7.5,12.5,150.0,130.0,150.0,110.0,120,,,170.0,,0.10416666666666667,0,0,0.0625,0,0,5000.0,0.0029910269192422734,0.0,0.0,0.0,1.0
uik7aoor,tgar6z2d,418c69c6-ec34-43cb-8592-f2fd1b6fcf4f,9f70b144-bb13-4260-831f-f9cb21838f0b,1,1,0,1,4759.0,3800.0,,,3670.0,11.0,,4699.0,0.5,9.0,0.4,4,1,22.0,0.0,1.0,1,1,1.0,0.0,1.0,4.0,127.5,7.5,12.5,150.0,130.0,150.0,110.0,120,,,170.0,,0.10416666666666667,0,0,0.0625,0,0,4990.0,0.0029910269192422734,0.0,0.0,0.0,1.0
uik7aoor,z3reux71,418c69c6-ec34-43cb-8592-f2fd1b6fcf4f,9d53611f-f803-450c-bed2-ad0697c26298,1,1,0,1,5706.0,2600.0,,,2450.0,22.0,,5636.0,0.5833333333333334,9.0,0.31666666666666665,1,1,21.0,0.0,0.0,0,1,1.0,0.0,1.0,4.0,127.5,7.5,12.5,150.0,130.0,150.0,110.0,120,,,170.0,,0.10416666666666667,0,0,0.0625,0,0,5090.0,0.0029910269192422734,0.0,0.0,0.0,1.0
uik7aoor,a12rmbju,418c69c6-ec34-43cb-8592-f2fd1b6fcf4f,d08bcb2b-8529-4fb2-8df1-d0ba2880bbed,1,1,0,1,5027.0,3800.0,,,3800.0,10.0,,4907.0,1.0,4.0,-0.6,2,0,23.0,1.0,1.0,1,1,0.0,0.0,0.0,4.0,127.5,7.5,12.5,150.0,130.0,150.0,110.0,120,,,170.0,,0.10416666666666667,0,0,0.0625,0,0,5000.0,0.0029910269192422734,0.0,0.0,0.0,1.0
uik7aoor,b2sjpg82,418c69c6-ec34-43cb-8592-f2fd1b6fcf4f,3f6f9d47-f2e6-44f6-8da9-2c8a16a3df63,1,1,0,2,5772.0,2600.0,,,2668.0,21.0,,5702.0,0.5833333333333334,3.0,-0.2833333333333334,3,0,22.0,0.0,0.0,1,1,1.0,0.0,1.0,4.0,120.0,8.0,21.0,170.0,90.0,170.0,90.0,112,150.0,,100.0,0.1333333333333333,0.1875,0,0,0.07142857142857142,0,0,5020.0,0.0028369326134773045,0.0,0.0,1.0,0.0
uik7aoor,juhy06e8,418c69c6-ec34-43cb-8592-f2fd1b6fcf4f,e35674dc-ec96-4955-9641-275f1f5a2902,1,1,0,2,4773.0,3800.0,,,3982.0,9.0,,4693.0,0.6666666666666666,8.0,0.13333333333333341,1,1,66.0,0.0,0.0,1,1,0.0,0.0,0.0,4.0,120.0,8.0,21.0,170.0,90.0,170.0,90.0,112,150.0,,100.0,0.1333333333333333,0.1875,0,0,0.07142857142857142,0,0,4990.0,0.0028369326134773045,0.0,0.0,0.0,1.0
uik7aoor,hliggtnp,418c69c6-ec34-43cb-8592-f2fd1b6fcf4f,fde48bd3-7bd3-4e77-a95f-25abeea55ed0,1,1,0,2,5676.0,2600.0,,,2880.0,19.0,,5556.0,1.0,3.0,-0.7,3,1,33.0,1.0,1.0,1,1,0.0,1.0,-1.0,4.0,120.0,8.0,21.0,170.0,90.0,170.0,90.0,112,150.0,,100.0,0.1333333333333333,0.1875,0,0,0.07142857142857142,0,0,5008.0,0.0028369326134773045,0.0,1.0,0.0,0.0
uik7aoor,7y6562pk,418c69c6-ec34-43cb-8592-f2fd1b6fcf4f,022bbf5d-3d6e-47c2-9a2a-66d712d45701,1,1,0,2,4817.0,3800.0,,,3906.0,10.0,,4787.0,0.25,9.0,0.65,1,1,45.0,0.0,1.0,0,1,2.0,1.0,1.0,4.0,120.0,8.0,21.0,170.0,90.0,170.0,90.0,112,150.0,,100.0,0.1333333333333333,0.1875,0,0,0.07142857142857142,0,0,5026.0,0.0028369326134773045,0.0,0.0,1.0,0.0
uik7aoor,lk5oyxpy,418c69c6-ec34-43cb-8592-f2fd1b6fcf4f,376885f3-c47c-49f0-a0be-9a38c1b06b80,1,1,0,2,4459.0,2600.0,,,2590.0,21.0,,4419.0,0.3333333333333333,10.0,0.6666666666666667,1,0,33.0,1.0,0.0,1,1,1.0,0.0,1.0,4.0,120.0,8.0,21.0,170.0,90.0,170.0,90.0,112,150.0,,100.0,0.1333333333333333,0.1875,0,0,0.07142857142857142,0,0,4942.0,0.0028369326134773045,0.0,0.0,0.0,1.0
uik7aoor,tgar6z2d,418c69c6-ec34-43cb-8592-f2fd1b6fcf4f,9f70b144-bb13-4260-831f-f9cb21838f0b,1,1,0,2,4759.0,3800.0,,,3758.0,11.0,,4699.0,0.5,9.0,0.4,4,1,22.0,0.0,1.0,1,1,0.0,0.0,0.0,4.0,120.0,8.0,21.0,170.0,90.0,170.0,90.0,112,150.0,,100.0,0.1333333333333333,0.1875,0,0,0.07142857142857142,0,0,4990.0,0.0028369326134773045,0.0,0.0,0.0,1.0
uik7aoor,z3reux71,418c69c6-ec34-43cb-8592-f2fd1b6fcf4f,9d53611f-f803-450c-bed2-ad0697c26298,1,1,0,2,5706.0,2600.0,,,2904.0,19.0,,5636.0,0.5833333333333334,9.0,0.31666666666666665,1,1,21.0,0.0,0.0,0,1,0.0,2.0,-2.0,4.0,120.0,8.0,21.0,170.0,90.0,170.0,90.0,112,150.0,,100.0,0.1333333333333333,0.1875,0,0,0.07142857142857142,0,0,5032.0,0.0028369326134773045,0.0,0.0,0.0,1.0
uik7aoor,a12rmbju,418c69c6-ec34-43cb-8592-f2fd1b6fcf4f,d08bcb2b-8529-4fb2-8df1-d0ba2880bbed,1,1,0,2,5027.0,3800.0,,,3880.0,10.0,,4907.0,1.0,4.0,-0.6,2,0,23.0,1.0,1.0,1,1,0.0,0.0,0.0,4.0,120.0,8.0,21.0,170.0,90.0,170.0,90.0,112,150.0,,100.0,0.1333333333333333,0.1875,0,0,0.07142857142857142,0,0,5000.0,0.0028369326134773045,0.0,0.0,0.0,1.0
uik7aoor,b2sjpg82,418c69c6-ec34-43cb-8592-f2fd1b6fcf4f,3f6f9d47-f2e6-44f6-8da9-2c8a16a3df63,1,1,0,3,5772.0,2600.0,0.0,0.0,2836.0,21.0,,5702.0,0.5833333333333334,3.0,-0.2833333333333334,3,0,22.0,0.0,0.0,1,1,0.0,0.0,0.0,4.0,96.25,-7.75,7.75,100.0,100.0,100.0,90.0,104,170.0,150.0,120.0,-0.4117647058823529,0.07451923076923077,0,0,-0.07451923076923077,0,0,5020.0,0.0027119576084783043,0.0,0.0,1.0,0.0
uik7aoor,juhy06e8,418c69c6-ec34-43cb-8592-f2fd1b6fcf4f,e35674dc-ec96-4955-9641-275f1f5a2902,1,1,0,3,4773.0,3800.0,0.0,0.0,4244.0,7.0,,4693.0,0.6666666666666666,8.0,0.13333333333333341,1,1,66.0,0.0,0.0,1,1,0.0,2.0,-2.0,4.0,96.25,-7.75,7.75,100.0,100.0,100.0,90.0,104,170.0,150.0,120.0,-0.4117647058823529,0.07451923076923077,0,0,-0.07451923076923077,0,0,4972.0,0.0027119576084783043,0.0,0.0,0.0,1.0
uik7aoor,hliggtnp,418c69c6-ec34-43cb-8592-f2fd1b6fcf4f,fde48bd3-7bd3-4e77-a95f-25abeea55ed0,1,1,0,3,5676.0,2600.0,0.0,0.0,3032.0,19.0,,5556.0,1.0,3.0,-0.7,3,1,33.0,1.0,1.0,1,1,0.0,0.0,0.0,4.0,96.25,-7.75,7.75,100.0,100.0,100.0,90.0,104,170.0,150.0,120.0,-0.4117647058823529,0.07451923076923077,0,0,-0.07451923076923077,0,0,5008.0,0.0027119576084783043,0.0,1.0,0.0,0.0
uik7aoor,7y6562pk,418c69c6-ec34-43cb-8592-f2fd1b6fcf4f,022bbf5d-3d6e-47c2-9a2a-66d712d45701,1,1,0,3,4817.0,3800.0,0.0,0.0,3986.0,10.0,,4787.0,0.25,9.0,0.65,1,1,45.0,0.0,1.0,0,1,0.0,0.0,0.0,4.0,96.25,-7.75,7.75,100.0,100.0,100.0,90.0,104,170.0,150.0,120.0,-0.4117647058823529,0.07451923076923077,0,0,-0.07451923076923077,0,0,5026.0,0.0027119576084783043,0.0,0.0,1.0,0.0
uik7aoor,lk5oyxpy,418c69c6-ec34-43cb-8592-f2fd1b6fcf4f,376885f3-c47c-49f0-a0be-9a38c1b06b80,1,1,0,3,4459.0,2600.0,90.0,4.0,2658.0,22.0,,4419.0,0.3333333333333333,10.0,0.6666666666666667,1,0,33.0,1.0,0.0,1,1,1.0,0.0,1.0,4.0,96.25,-7.75,7.75,100.0,100.0,100.0,90.0,104,170.0,150.0,120.0,-0.4117647058823529,0.07451923076923077,0,0,-0.07451923076923077,0,0,4946.0,0.0027119576084783043,0.0,0.0,0.0,1.0
uik7aoor,tgar6z2d,418c69c6-ec34-43cb-8592-f2fd1b6fcf4f,9f70b144-bb13-4260-831f-f9cb21838f0b,1,1,0,3,4759.0,3800.0,0.0,0.0,3651.0,13.0,,4699.0,0.5,9.0,0.4,4,1,22.0,0.0,1.0,1,1,2.0,0.0,2.0,4.0,96.25,-7.75,7.75,100.0,100.0,100.0,90.0,104,170.0,150.0,120.0,-0.4117647058823529,0.07451923076923077,0,0,-0.07451923076923077,0,0,5003.0,0.0027119576084783043,0.0,0.0,0.0,1.0
uik7aoor,z3reux71,418c69c6-ec34-43cb-8592-f2fd1b6fcf4f,9d53611f-f803-450c-bed2-ad0697c26298,1,1,0,3,5706.0,2600.0,99.0,5.0,3151.0,18.0,,5636.0,0.5833333333333334,9.0,0.31666666666666665,1,1,21.0,0.0,0.0,0,1,0.0,1.0,-1.0,4.0,96.25,-7.75,7.75,100.0,100.0,100.0,90.0,104,170.0,150.0,120.0,-0.4117647058823529,0.07451923076923077,0,0,-0.07451923076923077,0,0,5023.0,0.0027119576084783043,0.0,0.0,0.0,1.0
uik7aoor,a12rmbju,418c69c6-ec34-43cb-8592-f2fd1b6fcf4f,d08bcb2b-8529-4fb2-8df1-d0ba2880bbed,1,1,0,3,5027.0,3800.0,0.0,0.0,3970.0,10.0,,4907.0,1.0,4.0,-0.6,2,0,23.0,1.0,1.0,1,1,1.0,1.0,0.0,4.0,96.25,-7.75,7.75,100.0,100.0,100.0,90.0,104,170.0,150.0,120.0,-0.4117647058823529,0.07451923076923077,0,0,-0.07451923076923077,0,0,5010.0,0.0027119576084783043,0.0,0.0,0.0,1.0
uik7aoor,b2sjpg82,418c69c6-ec34-43cb-8592-f2fd1b6fcf4f,3f6f9d47-f2e6-44f6-8da9-2c8a16a3df63,1,1,0,4,5772.0,2600.0,,,3256.0,21.0,,5702.0,0.5833333333333334,3.0,-0.2833333333333334,3,0,22.0,0.0,0.0,1,1,0.0,0.0,0.0,2.0,125.0,29.0,29.0,120.0,130.0,130.0,120.0,96,100.0,170.0,90.0,0.19999999999999996,0.3020833333333333,0,0,0.3020833333333333,0,0,5272.0,0.006411648330438139,0.0,0.0,1.0,0.0
uik7aoor,juhy06e8,418c69c6-ec34-43cb-8592-f2fd1b6fcf4f,e35674dc-ec96-4955-9641-275f1f5a2902,1,1,0,4,4773.0,3800.0,,,4504.0,6.0,,4693.0,0.6666666666666666,8.0,0.13333333333333341,1,1,66.0,0.0,0.0,1,1,0.0,1.0,-1.0,2.0,125.0,29.0,29.0,120.0,130.0,130.0,120.0,96,100.0,170.0,90.0,0.19999999999999996,0.3020833333333333,0,0,0.3020833333333333,0,0,5080.0,0.006411648330438139,0.0,0.0,0.0,1.0
uik7aoor,hliggtnp,418c69c6-ec34-43cb-8592-f2fd1b6fcf4f,fde48bd3-7bd3-4e77-a95f-25abeea55ed0,1,1,0,4,5676.0,2600.0,,,3412.0,19.0,,5556.0,1.0,3.0,-0.7,3,1,33.0,1.0,1.0,1,1,0.0,0.0,0.0,2.0,125.0,29.0,29.0,120.0,130.0,130.0,120.0,96,100.0,170.0,90.0,0.19999999999999996,0.3020833333333333,0,0,0.3020833333333333,0,0,5236.0,0.006411648330438139,0.0,1.0,0.0,0.0
uik7aoor,7y6562pk,418c69c6-ec34-43cb-8592-f2fd1b6fcf4f,022bbf5d-3d6e-47c2-9a2a-66d712d45701,1,1,0,4,4817.0,3800.0,,,4186.0,10.0,,4787.0,0.25,9.0,0.65,1,1,45.0,0.0,1.0,0,1,0.0,0.0,0.0,2.0,125.0,29.0,29.0,120.0,130.0,130.0,120.0,96,100.0,170.0,90.0,0.19999999999999996,0.3020833333333333,0,0,0.3020833333333333,0,0,5146.0,0.006411648330438139,0.0,0.0,1.0,0.0
uik7aoor,lk5oyxpy,418c69c6-ec34-43cb-8592-f2fd1b6fcf4f,376885f3-c47c-49f0-a0be-9a38c1b06b80,1,1,0,4,4459.0,2600.0,,,2968.0,23.0,,4419.0,0.3333333333333333,10.0,0.6666666666666667,1,0,33.0,1.0,0.0,1,1,1.0,0.0,1.0,2.0,125.0,29.0,29.0,120.0,130.0,130.0,120.0,96,100.0,170.0,90.0,0.19999999999999996,0.3020833333333333,0,0,0.3020833333333333,0,0,5176.0,0.006411648330438139,0.0,0.0,0.0,1.0
uik7aoor,tgar6z2d,418c69c6-ec34-43cb-8592-f2fd1b6fcf4f,9f70b144-bb13-4260-831f-f9cb21838f0b,1,1,0,4,4759.0,3800.0,,,3911.0,13.0,,4699.0,0.5,9.0,0.4,4,1,22.0,0.0,1.0,1,1,0.0,0.0,0.0,2.0,125.0,29.0,29.0,120.0,130.0,130.0,120.0,96,100.0,170.0,90.0,0.19999999999999996,0.3020833333333333,0,0,0.3020833333333333,0,0,5159.0,0.006411648330438139,0.0,0.0,0.0,1.0
uik7aoor,z3reux71,418c69c6-ec34-43cb-8592-f2fd1b6fcf4f,9d53611f-f803-450c-bed2-ad0697c26298,1,1,0,4,5706.0,2600.0,,,3511.0,18.0,,5636.0,0.5833333333333334,9.0,0.31666666666666665,1,1,21.0,0.0,0.0,0,1,0.0,0.0,0.0,2.0,125.0,29.0,29.0,120.0,130.0,130.0,120.0,96,100.0,170.0,90.0,0.19999999999999996,0.3020833333333333,0,0,0.3020833333333333,0,0,5239.0,0.006411648330438139,0.0,0.0,0.0,1.0
uik7aoor,a12rmbju,418c69c6-ec34-43cb-8592-f2fd1b6fcf4f,d08bcb2b-8529-4fb2-8df1-d0ba2880bbed,1,1,0,4,5027.0,3800.0,,,4180.0,10.0,,4907.0,1.0,4.0,-0.6,2,0,23.0,1.0,1.0,1,1,1.0,1.0,0.0,2.0,125.0,29.0,29.0,120.0,130.0,130.0,120.0,96,100.0,170.0,90.0,0.19999999999999996,0.3020833333333333,0,0,0.3020833333333333,0,0,5140.0,0.006411648330438139,0.0,0.0,0.0,1.0
uik7aoor,b2sjpg82,418c69c6-ec34-43cb-8592-f2fd1b6fcf4f,3f6f9d47-f2e6-44f6-8da9-2c8a16a3df63,1,1,0,5,5772.0,2600.0,,,3766.0,20.0,,5702.0,0.5833333333333334,3.0,-0.2833333333333334,3,0,22.0,0.0,0.0,1,1,0.0,1.0,-1.0,5.0,104.0,16.0,16.0,90.0,120.0,130.0,90.0,88,120.0,100.0,80.0,-0.25,0.18181818181818182,0,0,0.18181818181818182,0,0,5526.0,0.013168019026301063,0.0,0.0,1.0,0.0
uik7aoor,juhy06e8,418c69c6-ec34-43cb-8592-f2fd1b6fcf4f,e35674dc-ec96-4955-9641-275f1f5a2902,1,1,0,5,4773.0,3800.0,,,4654.0,6.0,,4693.0,0.6666666666666666,8.0,0.13333333333333341,1,1,66.0,0.0,0.0,1,1,1.0,1.0,0.0,5.0,104.0,16.0,16.0,90.0,120.0,130.0,90.0,88,120.0,100.0,80.0,-0.25,0.18181818181818182,0,0,0.18181818181818182,0,0,5182.0,0.013168019026301063,0.0,0.0,0.0,1.0
uik7aoor,hliggtnp,418c69c6-ec34-43cb-8592-f2fd1b6fcf4f,fde48bd3-7bd3-4e77-a95f-25abeea55ed0,1,1,0,5,5676.0,2600.0,,,3972.0,17.0,,5556.0,1.0,3.0,-0.7,3,1,33.0,1.0,1.0,1,1,0.0,2.0,-2.0,5.0,104.0,16.0,16.0,90.0,120.0,130.0,90.0,88,120.0,100.0,80.0,-0.25,0.18181818181818182,0,0,0.18181818181818182,0,0,5468.0,0.013168019026301063,0.0,1.0,0.0,0.0
uik7aoor,7y6562pk,418c69c6-ec34-43cb-8592-f2fd1b6fcf4f,022bbf5d-3d6e-47c2-9a2a-66d712d45701,1,1,0,5,4817.0,3800.0,,,4266.0,11.0,,4787.0,0.25,9.0,0.65,1,1,45.0,0.0,1.0,0,1,1.0,0.0,1.0,5.0,104.0,16.0,16.0,90.0,120.0,130.0,90.0,88,120.0,100.0,80.0,-0.25,0.18181818181818182,0,0,0.18181818181818182,0,0,5234.0,0.013168019026301063,0.0,0.0,1.0,0.0
uik7aoor,lk5oyxpy,418c69c6-ec34-43cb-8592-f2fd1b6fcf4f,376885f3-c47c-49f0-a0be-9a38c1b06b80,1,1,0,5,4459.0,2600.0,,,3428.0,23.0,,4419.0,0.3333333333333333,10.0,0.6666666666666667,1,0,33.0,1.0,0.0,1,1,0.0,0.0,0.0,5.0,104.0,16.0,16.0,90.0,120.0,130.0,90.0,88,120.0,100.0,80.0,-0.25,0.18181818181818182,0,0,0.18181818181818182,0,0,5452.0,0.013168019026301063,0.0,0.0,0.0,1.0
uik7aoor,tgar6z2d,418c69c6-ec34-43cb-8592-f2fd1b6fcf4f,9f70b144-bb13-4260-831f-f9cb21838f0b,1,1,0,5,4759.0,3800.0,,,3951.0,15.0,,4699.0,0.5,9.0,0.4,4,1,22.0,0.0,1.0,1,1,2.0,0.0,2.0,5.0,104.0,16.0,16.0,90.0,120.0,130.0,90.0,88,120.0,100.0,80.0,-0.25,0.18181818181818182,0,0,0.18181818181818182,0,0,5271.0,0.013168019026301063,0.0,0.0,0.0,1.0
uik7aoor,z3reux71,418c69c6-ec34-43cb-8592-f2fd1b6fcf4f,9d53611f-f803-450c-bed2-ad0697c26298,1,1,0,5,5706.0,2600.0,,,3911.0,18.0,,5636.0,0.5833333333333334,9.0,0.31666666666666665,1,1,21.0,0.0,0.0,0,1,1.0,1.0,0.0,5.0,104.0,16.0,16.0,90.0,120.0,130.0,90.0,88,120.0,100.0,80.0,-0.25,0.18181818181818182,0,0,0.18181818181818182,0,0,5495.0,0.013168019026301063,0.0,0.0,0.0,1.0
uik7aoor,a12rmbju,418c69c6-ec34-43cb-8592-f2fd1b6fcf4f,d08bcb2b-8529-4fb2-8df1-d0ba2880bbed,1,1,0,5,5027.0,3800.0,,,4380.0,10.0,,4907.0,1.0,4.0,-0.6,2,0,23.0,1.0,1.0,1,1,0.0,0.0,0.0,5.0,104.0,16.0,16.0,90.0,120.0,130.0,90.0,88,120.0,100.0,80.0,-0.25,0.18181818181818182,0,0,0.18181818181818182,0,0,5260.0,0.013168019026301063,0.0,0.0,0.0,1.0
uik7aoor,b2sjpg82,418c69c6-ec34-43cb-8592-f2fd1b6fcf4f,3f6f9d47-f2e6-44f6-8da9-2c8a16a3df63,1,1,0,6,5772.0,2600.0,0.0,0.0,3764.0,21.0,,5702.0,0.5833333333333334,3.0,-0.2833333333333334,3,0,22.0,0.0,0.0,1,1,1.0,0.0,1.0,4.0,81.0,1.0,1.0,80.0,82.0,82.0,80.0,80,90.0,120.0,77.0,-0.11111111111111116,0.0125,0,0,0.0125,0,0,5444.0,0.012915411410280549,0.0,0.0,1.0,0.0
uik7aoor,juhy06e8,418c69c6-ec34-43cb-8592-f2fd1b6fcf4f,e35674dc-ec96-4955-9641-275f1f5a2902,1,1,0,6,4773.0,3800.0,0.0,0.0,4678.0,6.0,,4693.0,0.6666666666666666,8.0,0.13333333333333341,1,1,66.0,0.0,0.0,1,1,0.0,0.0,0.0,4.0,81.0,1.0,1.0,80.0,82.0,82.0,80.0,80,90.0,120.0,77.0,-0.11111111111111116,0.0125,0,0,0.0125,0,0,5158.0,0.012915411410280549,0.0,0.0,0.0,1.0
uik7aoor,hliggtnp,418c69c6-ec34-43cb-8592-f2fd1b6fcf4f,fde48bd3-7bd3-4e77-a95f-25abeea55ed0,1,1,0,6,5676.0,2600.0,0.0,0.0,4120.0,16.0,,5556.0,1.0,3.0,-0.7,3,1,33.0,1.0,1.0,1,1,0.0,1.0,-1.0,4.0,81.0,1.0,1.0,80.0,82.0,82.0,80.0,80,90.0,120.0,77.0,-0.11111111111111116,0.0125,0,0,0.0125,0,0,5400.0,0.012915411410280549,0.0,1.0,0.0,0.0
uik7aoor,7y6562pk,418c69c6-ec34-43cb-8592-f2fd1b6fcf4f,022bbf5d-3d6e-47c2-9a2a-66d712d45701,1,1,0,6,4817.0,3800.0,0.0,0.0,4310.0,11.0,,4787.0,0.25,9.0,0.65,1,1,45.0,0.0,1.0,0,1,0.0,0.0,0.0,4.0,81.0,1.0,1.0,80.0,82.0,82.0,80.0,80,90.0,120.0,77.0,-0.11111111111111116,0.0125,0,0,0.0125,0,0,5190.0,0.012915411410280549,0.0,0.0,1.0,0.0
uik7aoor,lk5oyxpy,418c69c6-ec34-43cb-8592-f2fd1b6fcf4f,376885f3-c47c-49f0-a0be-9a38c1b06b80,1,1,0,6,4459.0,2600.0,0.0,0.0,3520.0,23.0,,4419.0,0.3333333333333333,10.0,0.6666666666666667,1,0,33.0,1.0,0.0,1,1,1.0,1.0,0.0,4.0,81.0,1.0,1.0,80.0,82.0,82.0,80.0,80,90.0,120.0,77.0,-0.11111111111111116,0.0125,0,0,0.0125,0,0,5360.0,0.012915411410280549,0.0,0.0,0.0,1.0
uik7aoor,tgar6z2d,418c69c6-ec34-43cb-8592-f2fd1b6fcf4f,9f70b144-bb13-4260-831f-f9cb21838f0b,1,1,0,6,4759.0,3800.0,99.0,3.0,3931.0,16.0,,4699.0,0.5,9.0,0.4,4,1,22.0,0.0,1.0,1,1,1.0,0.0,1.0,4.0,81.0,1.0,1.0,80.0,82.0,82.0,80.0,80,90.0,120.0,77.0,-0.11111111111111116,0.0125,0,0,0.0125,0,0,5211.0,0.012915411410280549,0.0,0.0,0.0,1.0
uik7aoor,z3reux71,418c69c6-ec34-43cb-8592-f2fd1b6fcf4f,9d53611f-f803-450c-bed2-ad0697c26298,1,1,0,6,5706.0,2600.0,90.0,2.0,4063.0,18.0,,5636.0,0.5833333333333334,9.0,0.31666666666666665,1,1,21.0,0.0,0.0,0,1,0.0,1.0,-1.0,4.0,81.0,1.0,1.0,80.0,82.0,82.0,80.0,80,90.0,120.0,77.0,-0.11111111111111116,0.0125,0,0,0.0125,0,0,5503.0,0.012915411410280549,0.0,0.0,0.0,1.0
uik7aoor,a12rmbju,418c69c6-ec34-43cb-8592-f2fd1b6fcf4f,d08bcb2b-8529-4fb2-8df1-d0ba2880bbed,1,1,0,6,5027.0,3800.0,0.0,0.0,4422.0,10.0,,4907.0,1.0,4.0,-0.6,2,0,23.0,1.0,1.0,1,1,1.0,1.0,0.0,4.0,81.0,1.0,1.0,80.0,82.0,82.0,80.0,80,90.0,120.0,77.0,-0.11111111111111116,0.0125,0,0,0.0125,0,0,5222.0,0.012915411410280549,0.0,0.0,0.0,1.0
uik7aoor,b2sjpg82,418c69c6-ec34-43cb-8592-f2fd1b6fcf4f,3f6f9d47-f2e6-44f6-8da9-2c8a16a3df63,1,1,0,7,5772.0,2600.0,,,4264.0,20.0,,5702.0,0.5833333333333334,3.0,-0.2833333333333334,3,0,22.0,0.0,0.0,1,1,0.0,1.0,-1.0,5.0,80.0,8.0,8.0,77.0,80.0,84.0,77.0,72,80.0,90.0,66.0,-0.03749999999999998,0.1111111111111111,0,0,0.1111111111111111,0,0,5704.0,0.01826923076923077,0.0,0.0,1.0,0.0
uik7aoor,juhy06e8,418c69c6-ec34-43cb-8592-f2fd1b6fcf4f,e35674dc-ec96-4955-9641-275f1f5a2902,1,1,0,7,4773.0,3800.0,,,4791.0,6.0,,4693.0,0.6666666666666666,8.0,0.13333333333333341,1,1,66.0,0.0,0.0,1,1,1.0,1.0,0.0,5.0,80.0,8.0,8.0,77.0,80.0,84.0,77.0,72,80.0,90.0,66.0,-0.03749999999999998,0.1111111111111111,0,0,0.1111111111111111,0,0,5223.0,0.01826923076923077,0.0,0.0,0.0,1.0
uik7aoor,hliggtnp,418c69c6-ec34-43cb-8592-f2fd1b6fcf4f,fde48bd3-7bd3-4e77-a95f-25abeea55ed0,1,1,0,7,5676.0,2600.0,,,4440.0,16.0,,5556.0,1.0,3.0,-0.7,3,1,33.0,1.0,1.0,1,1,0.0,0.0,0.0,5.0,80.0,8.0,8.0,77.0,80.0,84.0,77.0,72,80.0,90.0,66.0,-0.03749999999999998,0.1111111111111111,0,0,0.1111111111111111,0,0,5592.0,0.01826923076923077,0.0,1.0,0.0,0.0
uik7aoor,7y6562pk,418c69c6-ec34-43cb-8592-f2fd1b6fcf4f,022bbf5d-3d6e-47c2-9a2a-66d712d45701,1,1,0,7,4817.0,3800.0,,,4613.0,10.0,,4787.0,0.25,9.0,0.65,1,1,45.0,0.0,1.0,0,1,1.0,2.0,-1.0,5.0,80.0,8.0,8.0,77.0,80.0,84.0,77.0,72,80.0,90.0,66.0,-0.03749999999999998,0.1111111111111111,0,0,0.1111111111111111,0,0,5333.0,0.01826923076923077,0.0,0.0,1.0,0.0
uik7aoor,lk5oyxpy,418c69c6-ec34-43cb-8592-f2fd1b6fcf4f,376885f3-c47c-49f0-a0be-9a38c1b06b80,1,1,0,7,4459.0,2600.0,,,3823.0,25.0,,4419.0,0.3333333333333333,10.0,0.6666666666666667,1,0,33.0,1.0,0.0,1,1,2.0,0.0,2.0,5.0,80.0,8.0,8.0,77.0,80.0,84.0,77.0,72,80.0,90.0,66.0,-0.03749999999999998,0.1111111111111111,0,0,0.1111111111111111,0,0,5623.0,0.01826923076923077,0.0,0.0,0.0,1.0
uik7aoor,tgar6z2d,418c69c6-ec34-43cb-8592-f2fd1b6fcf4f,9f70b144-bb13-4260-831f-f9cb21838f0b,1,1,0,7,4759.0,3800.0,,,4172.0,17.0,,4699.0,0.5,9.0,0.4,4,1,22.0,0.0,1.0,1,1,1.0,0.0,1.0,5.0,80.0,8.0,8.0,77.0,80.0,84.0,77.0,72,80.0,90.0,66.0,-0.03749999999999998,0.1111111111111111,0,0,0.1111111111111111,0,0,5396.0,0.01826923076923077,0.0,0.0,0.0,1.0
uik7aoor,z3reux71,418c69c6-ec34-43cb-8592-f2fd1b6fcf4f,9d53611f-f803-450c-bed2-ad0697c26298,1,1,0,7,5706.0,2600.0,,,4503.0,17.0,,5636.0,0.5833333333333334,9.0,0.31666666666666665,1,1,21.0,0.0,0.0,0,1,0.0,1.0,-1.0,5.0,80.0,8.0,8.0,77.0,80.0,84.0,77.0,72,80.0,90.0,66.0,-0.03749999999999998,0.1111111111111111,0,0,0.1111111111111111,0,0,5727.0,0.01826923076923077,0.0,0.0,0.0,1.0
uik7aoor,a12rmbju,418c69c6-ec34-43cb-8592-f2fd1b6fcf4f,d08bcb2b-8529-4fb2-8df1-d0ba2880bbed,1,1,0,7,5027.0,3800.0,,,4622.0,10.0,,4907.0,1.0,4.0,-0.6,2,0,23.0,1.0,1.0,1,1,0.0,0.0,0.0,5.0,80.0,8.0,8.0,77.0,80.0,84.0,77.0,72,80.0,90.0,66.0,-0.03749999999999998,0.1111111111111111,0,0,0.1111111111111111,0,0,5342.0,0.01826923076923077,0.0,0.0,0.0,1.0
uik7aoor,b2sjpg82,418c69c6-ec34-43cb-8592-f2fd1b6fcf4f,3f6f9d47-f2e6-44f6-8da9-2c8a16a3df63,1,1,0,8,5772.0,2600.0,,,4344.0,20.0,,5702.0,0.5833333333333334,3.0,-0.2833333333333334,3,0,22.0,0.0,0.0,1,1,0.0,0.0,0.0,2.0,70.5,6.5,6.5,66.0,75.0,75.0,66.0,64,77.0,80.0,55.0,-0.1428571428571429,0.1015625,0,0,0.1015625,0,0,5624.0,0.01607948269513991,0.0,0.0,1.0,0.0
uik7aoor,juhy06e8,418c69c6-ec34-43cb-8592-f2fd1b6fcf4f,e35674dc-ec96-4955-9641-275f1f5a2902,1,1,0,8,4773.0,3800.0,,,4815.0,6.0,,4693.0,0.6666666666666666,8.0,0.13333333333333341,1,1,66.0,0.0,0.0,1,1,0.0,0.0,0.0,2.0,70.5,6.5,6.5,66.0,75.0,75.0,66.0,64,77.0,80.0,55.0,-0.1428571428571429,0.1015625,0,0,0.1015625,0,0,5199.0,0.01607948269513991,0.0,0.0,0.0,1.0
uik7aoor,hliggtnp,418c69c6-ec34-43cb-8592-f2fd1b6fcf4f,fde48bd3-7bd3-4e77-a95f-25abeea55ed0,1,1,0,8,5676.0,2600.0,,,4570.0,16.0,,5556.0,1.0,3.0,-0.7,3,1,33.0,1.0,1.0,1,1,0.0,1.0,-1.0,2.0,70.5,6.5,6.5,66.0,75.0,75.0,66.0,64,77.0,80.0,55.0,-0.1428571428571429,0.1015625,0,0,0.1015625,0,0,5594.0,0.01607948269513991,0.0,1.0,0.0,0.0
uik7aoor,7y6562pk,418c69c6-ec34-43cb-8592-f2fd1b6fcf4f,022bbf5d-3d6e-47c2-9a2a-66d712d45701,1,1,0,8,4817.0,3800.0,,,4653.0,10.0,,4787.0,0.25,9.0,0.65,1,1,45.0,0.0,1.0,0,1,0.0,0.0,0.0,2.0,70.5,6.5,6.5,66.0,75.0,75.0,66.0,64,77.0,80.0,55.0,-0.1428571428571429,0.1015625,0,0,0.1015625,0,0,5293.0,0.01607948269513991,0.0,0.0,1.0,0.0
uik7aoor,lk5oyxpy,418c69c6-ec34-43cb-8592-f2fd1b6fcf4f,376885f3-c47c-49f0-a0be-9a38c1b06b80,1,1,0,8,4459.0,2600.0,,,3848.0,26.0,,4419.0,0.3333333333333333,10.0,0.6666666666666667,1,0,33.0,1.0,0.0,1,1,1.0,0.0,1.0,2.0,70.5,6.5,6.5,66.0,75.0,75.0,66.0,64,77.0,80.0,55.0,-0.1428571428571429,0.1015625,0,0,0.1015625,0,0,5512.0,0.01607948269513991,0.0,0.0,0.0,1.0
uik7aoor,tgar6z2d,418c69c6-ec34-43cb-8592-f2fd1b6fcf4f,9f70b144-bb13-4260-831f-f9cb21838f0b,1,1,0,8,4759.0,3800.0,,,4240.0,17.0,,4699.0,0.5,9.0,0.4,4,1,22.0,0.0,1.0,1,1,0.0,0.0,0.0,2.0,70.5,6.5,6.5,66.0,75.0,75.0,66.0,64,77.0,80.0,55.0,-0.1428571428571429,0.1015625,0,0,0.1015625,0,0,5328.0,0.01607948269513991,0.0,0.0,0.0,1.0
uik7aoor,z3reux71,418c69c6-ec34-43cb-8592-f2fd1b6fcf4f,9d53611f-f803-450c-bed2-ad0697c26298,1,1,0,8,5706.0,2600.0,,,4580.0,16.0,,5636.0,0.5833333333333334,9.0,0.31666666666666665,1,1,21.0,0.0,0.0,0,1,1.0,1.0,0.0,2.0,70.5,6.5,6.5,66.0,75.0,75.0,66.0,64,77.0,80.0,55.0,-0.1428571428571429,0.1015625,0,0,0.1015625,0,0,5604.0,0.01607948269513991,0.0,0.0,0.0,1.0
uik7aoor,a12rmbju,418c69c6-ec34-43cb-8592-f2fd1b6fcf4f,d08bcb2b-8529-4fb2-8df1-d0ba2880bbed,1,1,0,8,5027.0,3800.0,,,4662.0,10.0,,4907.0,1.0,4.0,-0.6,2,0,23.0,1.0,1.0,1,1,0.0,0.0,0.0,2.0,70.5,6.5,6.5,66.0,75.0,75.0,66.0,64,77.0,80.0,55.0,-0.1428571428571429,0.1015625,0,0,0.1015625,0,0,5302.0,0.01607948269513991,0.0,0.0,0.0,1.0
uik7aoor,b2sjpg82,418c69c6-ec34-43cb-8592-f2fd1b6fcf4f,3f6f9d47-f2e6-44f6-8da9-2c8a16a3df63,1,1,0,9,5772.0,2600.0,0.0,0.0,4744.0,20.0,,5702.0,0.5833333333333334,3.0,-0.2833333333333334,3,0,22.0,0.0,0.0,1,1,0.0,0.0,0.0,3.0,65.33333333333333,9.333333333333334,10.0,55.0,66.0,75.0,55.0,56,66.0,77.0,66.0,-0.16666666666666663,0.17857142857142858,0,0,0.16666666666666657,0,0,5864.0,0.02125880674217426,0.0,0.0,1.0,0.0
uik7aoor,juhy06e8,418c69c6-ec34-43cb-8592-f2fd1b6fcf4f,e35674dc-ec96-4955-9641-275f1f5a2902,1,1,0,9,4773.0,3800.0,0.0,0.0,4990.0,5.0,,4693.0,0.6666666666666666,8.0,0.13333333333333341,1,1,66.0,0.0,0.0,1,1,0.0,1.0,-1.0,3.0,65.33333333333333,9.333333333333334,10.0,55.0,66.0,75.0,55.0,56,66.0,77.0,66.0,-0.16666666666666663,0.17857142857142858,0,0,0.16666666666666657,0,0,5270.0,0.02125880674217426,0.0,0.0,0.0,1.0
uik7aoor,hliggtnp,418c69c6-ec34-43cb-8592-f2fd1b6fcf4f,fde48bd3-7bd3-4e77-a95f-25abeea55ed0,1,1,0,9,5676.0,2600.0,0.0,0.0,4956.0,14.0,,5556.0,1.0,3.0,-0.7,3,1,33.0,1.0,1.0,1,1,0.0,1.0,-1.0,3.0,65.33333333333333,9.333333333333334,10.0,55.0,66.0,75.0,55.0,56,66.0,77.0,66.0,-0.16666666666666663,0.17857142857142858,0,0,0.16666666666666657,0,0,5740.0,0.02125880674217426,0.0,1.0,0.0,0.0
uik7aoor,7y6562pk,418c69c6-ec34-43cb-8592-f2fd1b6fcf4f,022bbf5d-3d6e-47c2-9a2a-66d712d45701,1,1,0,9,4817.0,3800.0,0.0,0.0,4778.0,11.0,,4787.0,0.25,9.0,0.65,1,1,45.0,0.0,1.0,0,1,1.0,0.0,1.0,3.0,65.33333333333333,9.333333333333334,10.0,55.0,66.0,75.0,55.0,56,66.0,77.0,66.0,-0.16666666666666663,0.17857142857142858,0,0,0.16666666666666657,0,0,5394.0,0.02125880674217426,0.0,0.0,1.0,0.0
uik7aoor,lk5oyxpy,418c69c6-ec34-43cb-8592-f2fd1b6fcf4f,376885f3-c47c-49f0-a0be-9a38c1b06b80,1,1,0,9,4459.0,2600.0,0.0,0.0,4368.0,26.0,,4419.0,0.3333333333333333,10.0,0.6666666666666667,1,0,33.0,1.0,0.0,1,1,0.0,0.0,0.0,3.0,65.33333333333333,9.333333333333334,10.0,55.0,66.0,75.0,55.0,56,66.0,77.0,66.0,-0.16666666666666663,0.17857142857142858,0,0,0.16666666666666657,0,0,5824.0,0.02125880674217426,0.0,0.0,0.0,1.0
uik7aoor,tgar6z2d,418c69c6-ec34-43cb-8592-f2fd1b6fcf4f,9f70b144-bb13-4260-831f-f9cb21838f0b,1,1,0,9,4759.0,3800.0,0.0,0.0,4534.0,18.0,,4699.0,0.5,9.0,0.4,4,1,22.0,0.0,1.0,1,1,2.0,1.0,1.0,3.0,65.33333333333333,9.333333333333334,10.0,55.0,66.0,75.0,55.0,56,66.0,77.0,66.0,-0.16666666666666663,0.17857142857142858,0,0,0.16666666666666657,0,0,5542.0,0.02125880674217426,0.0,0.0,0.0,1.0
uik7aoor,z3reux71,418c69c6-ec34-43cb-8592-f2fd1b6fcf4f,9d53611f-f803-450c-bed2-ad0697c26298,1,1,0,9,5706.0,2600.0,0.0,0.0,4900.0,16.0,,5636.0,0.5833333333333334,9.0,0.31666666666666665,1,1,21.0,0.0,0.0,0,1,0.0,0.0,0.0,3.0,65.33333333333333,9.333333333333334,10.0,55.0,66.0,75.0,55.0,56,66.0,77.0,66.0,-0.16666666666666663,0.17857142857142858,0,0,0.16666666666666657,0,0,5796.0,0.02125880674217426,0.0,0.0,0.0,1.0
uik7aoor,a12rmbju,418c69c6-ec34-43cb-8592-f2fd1b6fcf4f,d08bcb2b-8529-4fb2-8df1-d0ba2880bbed,1,1,0,9,5027.0,3800.0,0.0,0.0,4862.0,10.0,,4907.0,1.0,4.0,-0.6,2,0,23.0,1.0,1.0,1,1,0.0,0.0,0.0,3.0,65.33333333333333,9.333333333333334,10.0,55.0,66.0,75.0,55.0,56,66.0,77.0,66.0,-0.16666666666666663,0.17857142857142858,0,0,0.16666666666666657,0,0,5422.0,0.02125880674217426,0.0,0.0,0.0,1.0
uik7aoor,b2sjpg82,418c69c6-ec34-43cb-8592-f2fd1b6fcf4f,3f6f9d47-f2e6-44f6-8da9-2c8a16a3df63,1,1,0,10,5772.0,2600.0,,,4694.0,21.0,,5702.0,0.5833333333333334,3.0,-0.2833333333333334,3,0,22.0,0.0,0.0,1,1,2.0,1.0,1.0,4.0,57.5,9.5,9.5,66.0,66.0,66.0,48.0,48,55.0,66.0,66.0,0.19999999999999996,0.19791666666666666,0,0,0.19791666666666666,0,0,5702.0,0.017725325799690148,0.0,0.0,1.0,0.0
uik7aoor,juhy06e8,418c69c6-ec34-43cb-8592-f2fd1b6fcf4f,e35674dc-ec96-4955-9641-275f1f5a2902,1,1,0,10,4773.0,3800.0,,,4990.0,5.0,,4693.0,0.6666666666666666,8.0,0.13333333333333341,1,1,66.0,0.0,0.0,1,1,0.0,0.0,0.0,4.0,57.5,9.5,9.5,66.0,66.0,66.0,48.0,48,55.0,66.0,66.0,0.19999999999999996,0.19791666666666666,0,0,0.19791666666666666,0,0,5230.0,0.017725325799690148,0.0,0.0,0.0,1.0
uik7aoor,hliggtnp,418c69c6-ec34-43cb-8592-f2fd1b6fcf4f,fde48bd3-7bd3-4e77-a95f-25abeea55ed0,1,1,0,10,5676.0,2600.0,,,5022.0,13.0,,5556.0,1.0,3.0,-0.7,3,1,33.0,1.0,1.0,1,1,0.0,1.0,-1.0,4.0,57.5,9.5,9.5,66.0,66.0,66.0,48.0,48,55.0,66.0,66.0,0.19999999999999996,0.19791666666666666,0,0,0.19791666666666666,0,0,5646.0,0.017725325799690148,0.0,1.0,0.0,0.0
uik7aoor,7y6562pk,418c69c6-ec34-43cb-8592-f2fd1b6fcf4f,022bbf5d-3d6e-47c2-9a2a-66d712d45701,1,1,0,10,4817.0,3800.0,,,4778.0,11.0,,4787.0,0.25,9.0,0.65,1,1,45.0,0.0,1.0,0,1,0.0,0.0,0.0,4.0,57.5,9.5,9.5,66.0,66.0,66.0,48.0,48,55.0,66.0,66.0,0.19999999999999996,0.19791666666666666,0,0,0.19791666666666666,0,0,5306.0,0.017725325799690148,0.0,0.0,1.0,0.0
uik7aoor,lk5oyxpy,418c69c6-ec34-43cb-8592-f2fd1b6fcf4f,376885f3-c47c-49f0-a0be-9a38c1b06b80,1,1,0,10,4459.0,2600.0,,,4302.0,27.0,,4419.0,0.3333333333333333,10.0,0.6666666666666667,1,0,33.0,1.0,0.0,1,1,1.0,0.0,1.0,4.0,57.5,9.5,9.5,66.0,66.0,66.0,48.0,48,55.0,66.0,66.0,0.19999999999999996,0.19791666666666666,0,0,0.19791666666666666,0,0,5598.0,0.017725325799690148,0.0,0.0,0.0,1.0
uik7aoor,tgar6z2d,418c69c6-ec34-43cb-8592-f2fd1b6fcf4f,9f70b144-bb13-4260-831f-f9cb21838f0b,1,1,0,10,4759.0,3800.0,,,4536.0,18.0,,4699.0,0.5,9.0,0.4,4,1,22.0,0.0,1.0,1,1,1.0,1.0,0.0,4.0,57.5,9.5,9.5,66.0,66.0,66.0,48.0,48,55.0,66.0,66.0,0.19999999999999996,0.19791666666666666,0,0,0.19791666666666666,0,0,5400.0,0.017725325799690148,0.0,0.0,0.0,1.0
uik7aoor,z3reux71,418c69c6-ec34-43cb-8592-f2fd1b6fcf4f,9d53611f-f803-450c-bed2-ad0697c26298,1,1,0,10,5706.0,2600.0,,,4900.0,16.0,,5636.0,0.5833333333333334,9.0,0.31666666666666665,1,1,21.0,0.0,0.0,0,1,0.0,0.0,0.0,4.0,57.5,9.5,9.5,66.0,66.0,66.0,48.0,48,55.0,66.0,66.0,0.19999999999999996,0.19791666666666666,0,0,0.19791666666666666,0,0,5668.0,0.017725325799690148,0.0,0.0,0.0,1.0
uik7aoor,a12rmbju,418c69c6-ec34-43cb-8592-f2fd1b6fcf4f,d08bcb2b-8529-4fb2-8df1-d0ba2880bbed,1,1,0,10,5027.0,3800.0,,,4910.0,9.0,,4907.0,1.0,4.0,-0.6,2,0,23.0,1.0,1.0,1,1,0.0,1.0,-1.0,4.0,57.5,9.5,9.5,66.0,66.0,66.0,48.0,48,55.0,66.0,66.0,0.19999999999999996,0.19791666666666666,0,0,0.19791666666666666,0,0,5342.0,0.017725325799690148,0.0,0.0,0.0,1.0
uik7aoor,b2sjpg82,418c69c6-ec34-43cb-8592-f2fd1b6fcf4f,3f6f9d47-f2e6-44f6-8da9-2c8a16a3df63,1,1,0,11,5772.0,2600.0,,,4862.0,21.0,,5702.0,0.5833333333333334,3.0,-0.2833333333333334,3,0,22.0,0.0,0.0,1,1,0.0,0.0,0.0,0.0,,,,66.0,,,,40,66.0,55.0,33.0,0.0,,0,0,,0,0,5702.0,0.017725325799690148,0.0,0.0,1.0,0.0
uik7aoor,juhy06e8,418c69c6-ec34-43cb-8592-f2fd1b6fcf4f,e35674dc-ec96-4955-9641-275f1f5a2902,1,1,0,11,4773.0,3800.0,,,5030.0,5.0,,4693.0,0.6666666666666666,8.0,0.13333333333333341,1,1,66.0,0.0,0.0,1,1,0.0,0.0,0.0,0.0,,,,66.0,,,,40,66.0,55.0,33.0,0.0,,0,0,,0,0,5230.0,0.017725325799690148,0.0,0.0,0.0,1.0
uik7aoor,hliggtnp,418c69c6-ec34-43cb-8592-f2fd1b6fcf4f,fde48bd3-7bd3-4e77-a95f-25abeea55ed0,1,1,0,11,5676.0,2600.0,,,5126.0,13.0,,5556.0,1.0,3.0,-0.7,3,1,33.0,1.0,1.0,1,1,0.0,0.0,0.0,0.0,,,,66.0,,,,40,66.0,55.0,33.0,0.0,,0,0,,0,0,5646.0,0.017725325799690148,0.0,1.0,0.0,0.0
uik7aoor,7y6562pk,418c69c6-ec34-43cb-8592-f2fd1b6fcf4f,022bbf5d-3d6e-47c2-9a2a-66d712d45701,1,1,0,11,4817.0,3800.0,,,4866.0,11.0,,4787.0,0.25,9.0,0.65,1,1,45.0,0.0,1.0,0,1,0.0,0.0,0.0,0.0,,,,66.0,,,,40,66.0,55.0,33.0,0.0,,0,0,,0,0,5306.0,0.017725325799690148,0.0,0.0,1.0,0.0
uik7aoor,lk5oyxpy,418c69c6-ec34-43cb-8592-f2fd1b6fcf4f,376885f3-c47c-49f0-a0be-9a38c1b06b80,1,1,0,11,4459.0,2600.0,,,4518.0,27.0,,4419.0,0.3333333333333333,10.0,0.6666666666666667,1,0,33.0,1.0,0.0,1,1,0.0,0.0,0.0,0.0,,,,66.0,,,,40,66.0,55.0,33.0,0.0,,0,0,,0,0,5598.0,0.017725325799690148,0.0,0.0,0.0,1.0
uik7aoor,tgar6z2d,418c69c6-ec34-43cb-8592-f2fd1b6fcf4f,9f70b144-bb13-4260-831f-f9cb21838f0b,1,1,0,11,4759.0,3800.0,,,4680.0,18.0,,4699.0,0.5,9.0,0.4,4,1,22.0,0.0,1.0,1,1,0.0,0.0,0.0,0.0,,,,66.0,,,,40,66.0,55.0,33.0,0.0,,0,0,,0,0,5400.0,0.017725325799690148,0.0,0.0,0.0,1.0
uik7aoor,z3reux71,418c69c6-ec34-43cb-8592-f2fd1b6fcf4f,9d53611f-f803-450c-bed2-ad0697c26298,1,1,0,11,5706.0,2600.0,,,5028.0,16.0,,5636.0,0.5833333333333334,9.0,0.31666666666666665,1,1,21.0,0.0,0.0,0,1,0.0,0.0,0.0,0.0,,,,66.0,,,,40,66.0,55.0,33.0,0.0,,0,0,,0,0,5668.0,0.017725325799690148,0.0,0.0,0.0,1.0
uik7aoor,a12rmbju,418c69c6-ec34-43cb-8592-f2fd1b6fcf4f,d08bcb2b-8529-4fb2-8df1-d0ba2880bbed,1,1,0,11,5027.0,3800.0,,,4982.0,9.0,,4907.0,1.0,4.0,-0.6,2,0,23.0,1.0,1.0,1,1,0.0,0.0,0.0,0.0,,,,66.0,,,,40,66.0,55.0,33.0,0.0,,0,0,,0,0,5342.0,0.017725325799690148,0.0,0.0,0.0,1.0
uik7aoor,b2sjpg82,418c69c6-ec34-43cb-8592-f2fd1b6fcf4f,3f6f9d47-f2e6-44f6-8da9-2c8a16a3df63,1,1,0,12,5772.0,2600.0,45.0,3.0,5068.0,20.0,,5702.0,0.5833333333333334,3.0,-0.2833333333333334,3,0,22.0,0.0,0.0,1,1,0.0,1.0,-1.0,3.0,35.333333333333336,3.3333333333333335,3.3333333333333335,33.0,38.0,38.0,33.0,32,66.0,66.0,80.0,-0.5,0.10416666666666667,0,0,0.10416666666666674,0,0,5708.0,0.01779937118381482,0.0,0.0,1.0,0.0
uik7aoor,juhy06e8,418c69c6-ec34-43cb-8592-f2fd1b6fcf4f,e35674dc-ec96-4955-9641-275f1f5a2902,1,1,0,12,4773.0,3800.0,0.0,0.0,5070.0,5.0,,4693.0,0.6666666666666666,8.0,0.13333333333333341,1,1,66.0,0.0,0.0,1,1,0.0,0.0,0.0,3.0,35.333333333333336,3.3333333333333335,3.3333333333333335,33.0,38.0,38.0,33.0,32,66.0,66.0,80.0,-0.5,0.10416666666666667,0,0,0.10416666666666674,0,0,5230.0,0.01779937118381482,0.0,0.0,0.0,1.0
uik7aoor,hliggtnp,418c69c6-ec34-43cb-8592-f2fd1b6fcf4f,fde48bd3-7bd3-4e77-a95f-25abeea55ed0,1,1,0,12,5676.0,2600.0,0.0,0.0,5192.0,14.0,,5556.0,1.0,3.0,-0.7,3,1,33.0,1.0,1.0,1,1,1.0,0.0,1.0,3.0,35.333333333333336,3.3333333333333335,3.3333333333333335,33.0,38.0,38.0,33.0,32,66.0,66.0,80.0,-0.5,0.10416666666666667,0,0,0.10416666666666674,0,0,5640.0,0.01779937118381482,0.0,1.0,0.0,0.0
uik7aoor,7y6562pk,418c69c6-ec34-43cb-8592-f2fd1b6fcf4f,022bbf5d-3d6e-47c2-9a2a-66d712d45701,1,1,0,12,4817.0,3800.0,87.0,3.0,4987.0,10.0,,4787.0,0.25,9.0,0.65,1,1,45.0,0.0,1.0,0,1,0.0,1.0,-1.0,3.0,35.333333333333336,3.3333333333333335,3.3333333333333335,33.0,38.0,38.0,33.0,32,66.0,66.0,80.0,-0.5,0.10416666666666667,0,0,0.10416666666666674,0,0,5307.0,0.01779937118381482,0.0,0.0,1.0,0.0
uik7aoor,lk5oyxpy,418c69c6-ec34-43cb-8592-f2fd1b6fcf4f,376885f3-c47c-49f0-a0be-9a38c1b06b80,1,1,0,12,4459.0,2600.0,66.0,3.0,4699.0,28.0,,4419.0,0.3333333333333333,10.0,0.6666666666666667,1,0,33.0,1.0,0.0,1,1,1.0,0.0,1.0,3.0,35.333333333333336,3.3333333333333335,3.3333333333333335,33.0,38.0,38.0,33.0,32,66.0,66.0,80.0,-0.5,0.10416666666666667,0,0,0.10416666666666674,0,0,5595.0,0.01779937118381482,0.0,0.0,0.0,1.0
uik7aoor,tgar6z2d,418c69c6-ec34-43cb-8592-f2fd1b6fcf4f,9f70b144-bb13-4260-831f-f9cb21838f0b,1,1,0,12,4759.0,3800.0,0.0,0.0,4824.0,18.0,,4699.0,0.5,9.0,0.4,4,1,22.0,0.0,1.0,1,1,0.0,0.0,0.0,3.0,35.333333333333336,3.3333333333333335,3.3333333333333335,33.0,38.0,38.0,33.0,32,66.0,66.0,80.0,-0.5,0.10416666666666667,0,0,0.10416666666666674,0,0,5400.0,0.01779937118381482,0.0,0.0,0.0,1.0
uik7aoor,z3reux71,418c69c6-ec34-43cb-8592-f2fd1b6fcf4f,9d53611f-f803-450c-bed2-ad0697c26298,1,1,0,12,5706.0,2600.0,0.0,0.0,5158.0,16.0,,5636.0,0.5833333333333334,9.0,0.31666666666666665,1,1,21.0,0.0,0.0,0,1,1.0,1.0,0.0,3.0,35.333333333333336,3.3333333333333335,3.3333333333333335,33.0,38.0,38.0,33.0,32,66.0,66.0,80.0,-0.5,0.10416666666666667,0,0,0.10416666666666674,0,0,5670.0,0.01779937118381482,0.0,0.0,0.0,1.0
uik7aoor,a12rmbju,418c69c6-ec34-43cb-8592-f2fd1b6fcf4f,d08bcb2b-8529-4fb2-8df1-d0ba2880bbed,1,1,0,12,5027.0,3800.0,0.0,0.0,5054.0,9.0,,4907.0,1.0,4.0,-0.6,2,0,23.0,1.0,1.0,1,1,0.0,0.0,0.0,3.0,35.333333333333336,3.3333333333333335,3.3333333333333335,33.0,38.0,38.0,33.0,32,66.0,66.0,80.0,-0.5,0.10416666666666667,0,0,0.10416666666666674,0,0,5342.0,0.01779937118381482,0.0,0.0,0.0,1.0
uik7aoor,b2sjpg82,418c69c6-ec34-43cb-8592-f2fd1b6fcf4f,3f6f9d47-f2e6-44f6-8da9-2c8a16a3df63,1,1,0,13,5772.0,2600.0,,,5308.0,19.0,,5702.0,0.5833333333333334,3.0,-0.2833333333333334,3,0,22.0,0.0,0.0,1,1,0.0,1.0,-1.0,2.0,85.025,61.025,61.025,80.0,90.05,90.05,80.0,24,33.0,66.0,11.0,1.4242424242424243,2.542708333333333,1,0,2.5427083333333336,1,1,5764.0,0.018945828399672102,0.0,0.0,1.0,0.0
uik7aoor,juhy06e8,418c69c6-ec34-43cb-8592-f2fd1b6fcf4f,e35674dc-ec96-4955-9641-275f1f5a2902,1,1,0,13,4773.0,3800.0,,,5110.0,5.0,,4693.0,0.6666666666666666,8.0,0.13333333333333341,1,1,66.0,0.0,0.0,1,1,0.0,0.0,0.0,2.0,85.025,61.025,61.025,80.0,90.05,90.05,80.0,24,33.0,66.0,11.0,1.4242424242424243,2.542708333333333,1,0,2.5427083333333336,1,1,5230.0,0.018945828399672102,0.0,0.0,0.0,1.0
uik7aoor,hliggtnp,418c69c6-ec34-43cb-8592-f2fd1b6fcf4f,fde48bd3-7bd3-4e77-a95f-25abeea55ed0,1,1,0,13,5676.0,2600.0,,,5213.95,15.0,,5556.0,1.0,3.0,-0.7,3,1,33.0,1.0,1.0,1,1,1.0,0.0,1.0,2.0,85.025,61.025,61.025,80.0,90.05,90.05,80.0,24,33.0,66.0,11.0,1.4242424242424243,2.542708333333333,1,0,2.5427083333333336,1,1,5573.95,0.018945828399672102,0.0,1.0,0.0,0.0
uik7aoor,7y6562pk,418c69c6-ec34-43cb-8592-f2fd1b6fcf4f,022bbf5d-3d6e-47c2-9a2a-66d712d45701,1,1,0,13,4817.0,3800.0,,,5067.0,10.0,,4787.0,0.25,9.0,0.65,1,1,45.0,0.0,1.0,0,1,0.0,0.0,0.0,2.0,85.025,61.025,61.025,80.0,90.05,90.05,80.0,24,33.0,66.0,11.0,1.4242424242424243,2.542708333333333,1,0,2.5427083333333336,1,1,5307.0,0.018945828399672102,0.0,0.0,1.0,0.0
uik7aoor,lk5oyxpy,418c69c6-ec34-43cb-8592-f2fd1b6fcf4f,376885f3-c47c-49f0-a0be-9a38c1b06b80,1,1,0,13,4459.0,2600.0,,,4923.0,28.0,,4419.0,0.3333333333333333,10.0,0.6666666666666667,1,0,33.0,1.0,0.0,1,1,0.0,0.0,0.0,2.0,85.025,61.025,61.025,80.0,90.05,90.05,80.0,24,33.0,66.0,11.0,1.4242424242424243,2.542708333333333,1,0,2.5427083333333336,1,1,5595.0,0.018945828399672102,0.0,0.0,0.0,1.0
uik7aoor,tgar6z2d,418c69c6-ec34-43cb-8592-f2fd1b6fcf4f,9f70b144-bb13-4260-831f-f9cb21838f0b,1,1,0,13,4759.0,3800.0,,,4968.0,18.0,,4699.0,0.5,9.0,0.4,4,1,22.0,0.0,1.0,1,1,0.0,0.0,0.0,2.0,85.025,61.025,61.025,80.0,90.05,90.05,80.0,24,33.0,66.0,11.0,1.4242424242424243,2.542708333333333,1,0,2.5427083333333336,1,1,5400.0,0.018945828399672102,0.0,0.0,0.0,1.0
uik7aoor,z3reux71,418c69c6-ec34-43cb-8592-f2fd1b6fcf4f,9d53611f-f803-450c-bed2-ad0697c26298,1,1,0,13,5706.0,2600.0,,,5296.05,17.0,,5636.0,0.5833333333333334,9.0,0.31666666666666665,1,1,21.0,0.0,0.0,0,1,1.0,1.0,0.0,2.0,85.025,61.025,61.025,80.0,90.05,90.05,80.0,24,33.0,66.0,11.0,1.4242424242424243,2.542708333333333,1,0,2.5427083333333336,1,1,5704.05,0.018945828399672102,0.0,0.0,0.0,1.0
uik7aoor,a12rmbju,418c69c6-ec34-43cb-8592-f2fd1b6fcf4f,d08bcb2b-8529-4fb2-8df1-d0ba2880bbed,1,1,0,13,5027.0,3800.0,,,5126.0,9.0,,4907.0,1.0,4.0,-0.6,2,0,23.0,1.0,1.0,1,1,0.0,0.0,0.0,2.0,85.025,61.025,61.025,80.0,90.05,90.05,80.0,24,33.0,66.0,11.0,1.4242424242424243,2.542708333333333,1,0,2.5427083333333336,1,1,5342.0,0.018945828399672102,0.0,0.0,0.0,1.0
uik7aoor,b2sjpg82,418c69c6-ec34-43cb-8592-f2fd1b6fcf4f,3f6f9d47-f2e6-44f6-8da9-2c8a16a3df63,1,1,0,14,5772.0,2600.0,,,5447.0,20.0,,5702.0,0.5833333333333334,3.0,-0.2833333333333334,3,0,22.0,0.0,0.0,1,1,1.0,0.0,1.0,4.0,43.5,27.5,31.5,11.0,80.0,80.0,11.0,16,80.0,33.0,19.0,-0.8625,1.96875,0,0,1.71875,0,0,5767.0,0.020125569476082007,0.0,0.0,1.0,0.0
uik7aoor,juhy06e8,418c69c6-ec34-43cb-8592-f2fd1b6fcf4f,e35674dc-ec96-4955-9641-275f1f5a2902,1,1,0,14,4773.0,3800.0,,,5150.0,5.0,,4693.0,0.6666666666666666,8.0,0.13333333333333341,1,1,66.0,0.0,0.0,1,1,0.0,0.0,0.0,4.0,43.5,27.5,31.5,11.0,80.0,80.0,11.0,16,80.0,33.0,19.0,-0.8625,1.96875,0,0,1.71875,0,0,5230.0,0.020125569476082007,0.0,0.0,0.0,1.0
uik7aoor,hliggtnp,418c69c6-ec34-43cb-8592-f2fd1b6fcf4f,fde48bd3-7bd3-4e77-a95f-25abeea55ed0,1,1,0,14,5676.0,2600.0,,,5405.95,14.0,,5556.0,1.0,3.0,-0.7,3,1,33.0,1.0,1.0,1,1,1.0,2.0,-1.0,4.0,43.5,27.5,31.5,11.0,80.0,80.0,11.0,16,80.0,33.0,19.0,-0.8625,1.96875,0,0,1.71875,0,0,5629.95,0.020125569476082007,0.0,1.0,0.0,0.0
uik7aoor,7y6562pk,418c69c6-ec34-43cb-8592-f2fd1b6fcf4f,022bbf5d-3d6e-47c2-9a2a-66d712d45701,1,1,0,14,4817.0,3800.0,,,5067.0,11.0,,4787.0,0.25,9.0,0.65,1,1,45.0,0.0,1.0,0,1,1.0,0.0,1.0,4.0,43.5,27.5,31.5,11.0,80.0,80.0,11.0,16,80.0,33.0,19.0,-0.8625,1.96875,0,0,1.71875,0,0,5243.0,0.020125569476082007,0.0,0.0,1.0,0.0
uik7aoor,lk5oyxpy,418c69c6-ec34-43cb-8592-f2fd1b6fcf4f,376885f3-c47c-49f0-a0be-9a38c1b06b80,1,1,0,14,4459.0,2600.0,,,5147.0,28.0,,4419.0,0.3333333333333333,10.0,0.6666666666666667,1,0,33.0,1.0,0.0,1,1,0.0,0.0,0.0,4.0,43.5,27.5,31.5,11.0,80.0,80.0,11.0,16,80.0,33.0,19.0,-0.8625,1.96875,0,0,1.71875,0,0,5595.0,0.020125569476082007,0.0,0.0,0.0,1.0
uik7aoor,tgar6z2d,418c69c6-ec34-43cb-8592-f2fd1b6fcf4f,9f70b144-bb13-4260-831f-f9cb21838f0b,1,1,0,14,4759.0,3800.0,,,5112.0,18.0,,4699.0,0.5,9.0,0.4,4,1,22.0,0.0,1.0,1,1,0.0,0.0,0.0,4.0,43.5,27.5,31.5,11.0,80.0,80.0,11.0,16,80.0,33.0,19.0,-0.8625,1.96875,0,0,1.71875,0,0,5400.0,0.020125569476082007,0.0,0.0,0.0,1.0
uik7aoor,z3reux71,418c69c6-ec34-43cb-8592-f2fd1b6fcf4f,9d53611f-f803-450c-bed2-ad0697c26298,1,1,0,14,5706.0,2600.0,,,5453.05,15.0,,5636.0,0.5833333333333334,9.0,0.31666666666666665,1,1,21.0,0.0,0.0,0,1,1.0,2.0,-1.0,4.0,43.5,27.5,31.5,11.0,80.0,80.0,11.0,16,80.0,33.0,19.0,-0.8625,1.96875,0,0,1.71875,0,0,5693.05,0.020125569476082007,0.0,0.0,0.0,1.0
uik7aoor,a12rmbju,418c69c6-ec34-43cb-8592-f2fd1b6fcf4f,d08bcb2b-8529-4fb2-8df1-d0ba2880bbed,1,1,0,14,5027.0,3800.0,,,5198.0,9.0,,4907.0,1.0,4.0,-0.6,2,0,23.0,1.0,1.0,1,1,0.0,0.0,0.0,4.0,43.5,27.5,31.5,11.0,80.0,80.0,11.0,16,80.0,33.0,19.0,-0.8625,1.96875,0,0,1.71875,0,0,5342.0,0.020125569476082007,0.0,0.0,0.0,1.0
uik7aoor,b2sjpg82,418c69c6-ec34-43cb-8592-f2fd1b6fcf4f,3f6f9d47-f2e6-44f6-8da9-2c8a16a3df63,1,1,0,15,5772.0,2600.0,,,5626.0,19.0,yes,5702.0,0.5833333333333334,3.0,-0.2833333333333334,3,0,22.0,0.0,0.0,1,1,0.0,1.0,-1.0,2.0,20.5,12.5,12.5,19.0,22.0,22.0,19.0,8,11.0,80.0,,0.7272727272727273,1.5625,0,0,1.5625,0,0,5778.0,0.020267938496583145,0.0,0.0,1.0,0.0
uik7aoor,juhy06e8,418c69c6-ec34-43cb-8592-f2fd1b6fcf4f,e35674dc-ec96-4955-9641-275f1f5a2902,1,1,0,15,4773.0,3800.0,,,5190.0,5.0,no,4693.0,0.6666666666666666,8.0,0.13333333333333341,1,1,66.0,0.0,0.0,1,1,0.0,0.0,0.0,2.0,20.5,12.5,12.5,19.0,22.0,22.0,19.0,8,11.0,80.0,,0.7272727272727273,1.5625,0,0,1.5625,0,0,5230.0,0.020267938496583145,0.0,0.0,0.0,1.0
uik7aoor,hliggtnp,418c69c6-ec34-43cb-8592-f2fd1b6fcf4f,fde48bd3-7bd3-4e77-a95f-25abeea55ed0,1,1,0,15,5676.0,2600.0,,,5495.95,15.0,no,5556.0,1.0,3.0,-0.7,3,1,33.0,1.0,1.0,1,1,1.0,0.0,1.0,2.0,20.5,12.5,12.5,19.0,22.0,22.0,19.0,8,11.0,80.0,,0.7272727272727273,1.5625,0,0,1.5625,0,0,5615.95,0.020267938496583145,0.0,1.0,0.0,0.0
uik7aoor,7y6562pk,418c69c6-ec34-43cb-8592-f2fd1b6fcf4f,022bbf5d-3d6e-47c2-9a2a-66d712d45701,1,1,0,15,4817.0,3800.0,,,5155.0,11.0,yes,4787.0,0.25,9.0,0.65,1,1,45.0,0.0,1.0,0,1,0.0,0.0,0.0,2.0,20.5,12.5,12.5,19.0,22.0,22.0,19.0,8,11.0,80.0,,0.7272727272727273,1.5625,0,0,1.5625,0,0,5243.0,0.020267938496583145,0.0,0.0,1.0,0.0
uik7aoor,lk5oyxpy,418c69c6-ec34-43cb-8592-f2fd1b6fcf4f,376885f3-c47c-49f0-a0be-9a38c1b06b80,1,1,0,15,4459.0,2600.0,,,5371.0,28.0,no,4419.0,0.3333333333333333,10.0,0.6666666666666667,1,0,33.0,1.0,0.0,1,1,0.0,0.0,0.0,2.0,20.5,12.5,12.5,19.0,22.0,22.0,19.0,8,11.0,80.0,,0.7272727272727273,1.5625,0,0,1.5625,0,0,5595.0,0.020267938496583145,0.0,0.0,0.0,1.0
uik7aoor,tgar6z2d,418c69c6-ec34-43cb-8592-f2fd1b6fcf4f,9f70b144-bb13-4260-831f-f9cb21838f0b,1,1,0,15,4759.0,3800.0,,,5256.0,18.0,yes,4699.0,0.5,9.0,0.4,4,1,22.0,0.0,1.0,1,1,0.0,0.0,0.0,2.0,20.5,12.5,12.5,19.0,22.0,22.0,19.0,8,11.0,80.0,,0.7272727272727273,1.5625,0,0,1.5625,0,0,5400.0,0.020267938496583145,0.0,0.0,0.0,1.0
uik7aoor,z3reux71,418c69c6-ec34-43cb-8592-f2fd1b6fcf4f,9d53611f-f803-450c-bed2-ad0697c26298,1,1,0,15,5706.0,2600.0,,,5576.05,15.0,no,5636.0,0.5833333333333334,9.0,0.31666666666666665,1,1,21.0,0.0,0.0,0,1,1.0,1.0,0.0,2.0,20.5,12.5,12.5,19.0,22.0,22.0,19.0,8,11.0,80.0,,0.7272727272727273,1.5625,0,0,1.5625,0,0,5696.05,0.020267938496583145,0.0,0.0,0.0,1.0
uik7aoor,a12rmbju,418c69c6-ec34-43cb-8592-f2fd1b6fcf4f,d08bcb2b-8529-4fb2-8df1-d0ba2880bbed,1,1,0,15,5027.0,3800.0,,,5270.0,9.0,yes,4907.0,1.0,4.0,-0.6,2,0,23.0,1.0,1.0,1,1,0.0,0.0,0.0,2.0,20.5,12.5,12.5,19.0,22.0,22.0,19.0,8,11.0,80.0,,0.7272727272727273,1.5625,0,0,1.5625,0,0,5342.0,0.020267938496583145,0.0,0.0,0.0,1.0
uik7aoor,b2sjpg82,03af9f8b-508e-452c-9c35-0eeba0e3b3cc,5ce597fa-5f3d-45d1-9de6-95be128b374b,1,1,0,1,5772.0,2600.0,,,2605.0,20.0,,5702.0,0.5833333333333334,3.0,-0.2833333333333334,3,0,22.0,0.0,0.0,1,2,1.0,1.0,0.0,4.0,124.25,4.25,4.25,122.0,130.0,130.0,120.0,120,,,123.0,,0.035416666666666666,0,0,0.035416666666666666,0,0,5005.0,0.0007,0.0,0.0,0.0,1.0
uik7aoor,juhy06e8,03af9f8b-508e-452c-9c35-0eeba0e3b3cc,6e0cda1c-f51b-4272-8648-67e646ea1f31,1,1,0,1,4773.0,3800.0,,,3800.0,10.0,,4693.0,0.6666666666666666,8.0,0.13333333333333341,1,1,66.0,0.0,0.0,1,2,0.0,0.0,0.0,4.0,124.25,4.25,4.25,122.0,130.0,130.0,120.0,120,,,123.0,,0.035416666666666666,0,0,0.035416666666666666,0,0,5000.0,0.0007,0.0,0.0,0.0,1.0
uik7aoor,hliggtnp,03af9f8b-508e-452c-9c35-0eeba0e3b3cc,3fe9607c-4723-4d14-a5b2-7580b114fb2f,1,1,0,1,5676.0,2600.0,,,2478.0,21.0,,5556.0,1.0,3.0,-0.7,3,1,33.0,1.0,1.0,1,2,1.0,0.0,1.0,4.0,124.25,4.25,4.25,122.0,130.0,130.0,120.0,120,,,123.0,,0.035416666666666666,0,0,0.035416666666666666,0,0,4998.0,0.0007,0.5,0.5,0.0,0.0
uik7aoor,7y6562pk,03af9f8b-508e-452c-9c35-0eeba0e3b3cc,4b39ad0b-8a75-4ba9-9d24-05dd32fad900,1,1,0,1,4817.0,3800.0,,,3800.0,10.0,,4787.0,0.25,9.0,0.65,1,1,45.0,0.0,1.0,0,2,0.0,0.0,0.0,4.0,124.25,4.25,4.25,122.0,130.0,130.0,120.0,120,,,123.0,,0.035416666666666666,0,0,0.035416666666666666,0,0,5000.0,0.0007,0.0,0.0,0.0,1.0
uik7aoor,lk5oyxpy,03af9f8b-508e-452c-9c35-0eeba0e3b3cc,8fc4cd9a-1fbb-43de-85ce-82cb99d02a2a,1,1,0,1,4459.0,2600.0,,,2600.0,20.0,,4419.0,0.3333333333333333,10.0,0.6666666666666667,1,0,33.0,1.0,0.0,1,2,0.0,0.0,0.0,4.0,124.25,4.25,4.25,122.0,130.0,130.0,120.0,120,,,123.0,,0.035416666666666666,0,0,0.035416666666666666,0,0,5000.0,0.0007,0.0,0.0,0.0,1.0
uik7aoor,tgar6z2d,03af9f8b-508e-452c-9c35-0eeba0e3b3cc,9697f7a1-e2e7-4427-8b7e-fb165a1ab72c,1,1,0,1,4759.0,3800.0,,,3545.0,12.0,,4699.0,0.5,9.0,0.4,4,1,22.0,0.0,1.0,1,2,2.0,0.0,2.0,4.0,124.25,4.25,4.25,122.0,130.0,130.0,120.0,120,,,123.0,,0.035416666666666666,0,0,0.035416666666666666,0,0,4985.0,0.0007,0.0,0.0,0.0,1.0
uik7aoor,z3reux71,03af9f8b-508e-452c-9c35-0eeba0e3b3cc,e467cb8d-10d2-48db-935f-2418d69da971,1,1,0,1,5706.0,2600.0,,,2720.0,19.0,,5636.0,0.5833333333333334,9.0,0.31666666666666665,1,1,21.0,0.0,0.0,0,2,0.0,1.0,-1.0,4.0,124.25,4.25,4.25,122.0,130.0,130.0,120.0,120,,,123.0,,0.035416666666666666,0,0,0.035416666666666666,0,0,5000.0,0.0007,0.0,0.0,1.0,0.0
uik7aoor,a12rmbju,03af9f8b-508e-452c-9c35-0eeba0e3b3cc,53beb2da-e31f-4578-baa8-2d398cbc80d4,1,1,0,1,5027.0,3800.0,,,4052.0,8.0,,4907.0,1.0,4.0,-0.6,2,0,23.0,1.0,1.0,1,2,0.0,2.0,-2.0,4.0,124.25,4.25,4.25,122.0,130.0,130.0,120.0,120,,,123.0,,0.035416666666666666,0,0,0.035416666666666666,0,0,5012.0,0.0007,0.0,0.0,0.0,1.0
uik7aoor,b2sjpg82,03af9f8b-508e-452c-9c35-0eeba0e3b3cc,5ce597fa-5f3d-45d1-9de6-95be128b374b,1,1,0,2,5772.0,2600.0,,,2686.0,20.0,,5702.0,0.5833333333333334,3.0,-0.2833333333333334,3,0,22.0,0.0,0.0,1,2,1.0,1.0,0.0,4.0,117.5,5.5,6.5,123.0,110.0,123.0,110.0,112,122.0,,122.0,0.008196721311475308,0.05803571428571429,0,0,0.049107142857142856,0,0,4926.0,0.0021697874493927126,0.0,0.0,0.0,1.0
uik7aoor,juhy06e8,03af9f8b-508e-452c-9c35-0eeba0e3b3cc,6e0cda1c-f51b-4272-8648-67e646ea1f31,1,1,0,2,4773.0,3800.0,,,3835.0,10.0,,4693.0,0.6666666666666666,8.0,0.13333333333333341,1,1,66.0,0.0,0.0,1,2,1.0,1.0,0.0,4.0,117.5,5.5,6.5,123.0,110.0,123.0,110.0,112,122.0,,122.0,0.008196721311475308,0.05803571428571429,0,0,0.049107142857142856,0,0,4955.0,0.0021697874493927126,0.0,0.0,0.0,1.0
uik7aoor,hliggtnp,03af9f8b-508e-452c-9c35-0eeba0e3b3cc,3fe9607c-4723-4d14-a5b2-7580b114fb2f,1,1,0,2,5676.0,2600.0,,,2562.0,21.0,,5556.0,1.0,3.0,-0.7,3,1,33.0,1.0,1.0,1,2,0.0,0.0,0.0,4.0,117.5,5.5,6.5,123.0,110.0,123.0,110.0,112,122.0,,122.0,0.008196721311475308,0.05803571428571429,0,0,0.049107142857142856,0,0,4914.0,0.0021697874493927126,0.5,0.5,0.0,0.0
uik7aoor,7y6562pk,03af9f8b-508e-452c-9c35-0eeba0e3b3cc,4b39ad0b-8a75-4ba9-9d24-05dd32fad900,1,1,0,2,4817.0,3800.0,,,3840.0,10.0,,4787.0,0.25,9.0,0.65,1,1,45.0,0.0,1.0,0,2,0.0,0.0,0.0,4.0,117.5,5.5,6.5,123.0,110.0,123.0,110.0,112,122.0,,122.0,0.008196721311475308,0.05803571428571429,0,0,0.049107142857142856,0,0,4960.0,0.0021697874493927126,0.0,0.0,0.0,1.0
uik7aoor,lk5oyxpy,03af9f8b-508e-452c-9c35-0eeba0e3b3cc,8fc4cd9a-1fbb-43de-85ce-82cb99d02a2a,1,1,0,2,4459.0,2600.0,,,2680.0,20.0,,4419.0,0.3333333333333333,10.0,0.6666666666666667,1,0,33.0,1.0,0.0,1,2,0.0,0.0,0.0,4.0,117.5,5.5,6.5,123.0,110.0,123.0,110.0,112,122.0,,122.0,0.008196721311475308,0.05803571428571429,0,0,0.049107142857142856,0,0,4920.0,0.0021697874493927126,0.0,0.0,0.0,1.0
uik7aoor,tgar6z2d,03af9f8b-508e-452c-9c35-0eeba0e3b3cc,9697f7a1-e2e7-4427-8b7e-fb165a1ab72c,1,1,0,2,4759.0,3800.0,,,3593.0,12.0,,4699.0,0.5,9.0,0.4,4,1,22.0,0.0,1.0,1,2,0.0,0.0,0.0,4.0,117.5,5.5,6.5,123.0,110.0,123.0,110.0,112,122.0,,122.0,0.008196721311475308,0.05803571428571429,0,0,0.049107142857142856,0,0,4937.0,0.0021697874493927126,0.0,0.0,0.0,1.0
uik7aoor,z3reux71,03af9f8b-508e-452c-9c35-0eeba0e3b3cc,e467cb8d-10d2-48db-935f-2418d69da971,1,1,0,2,5706.0,2600.0,,,3033.0,17.0,,5636.0,0.5833333333333334,9.0,0.31666666666666665,1,1,21.0,0.0,0.0,0,2,0.0,2.0,-2.0,4.0,117.5,5.5,6.5,123.0,110.0,123.0,110.0,112,122.0,,122.0,0.008196721311475308,0.05803571428571429,0,0,0.049107142857142856,0,0,4937.0,0.0021697874493927126,0.0,0.0,1.0,0.0
uik7aoor,a12rmbju,03af9f8b-508e-452c-9c35-0eeba0e3b3cc,53beb2da-e31f-4578-baa8-2d398cbc80d4,1,1,0,2,5027.0,3800.0,,,3851.0,10.0,,4907.0,1.0,4.0,-0.6,2,0,23.0,1.0,1.0,1,2,2.0,0.0,2.0,4.0,117.5,5.5,6.5,123.0,110.0,123.0,110.0,112,122.0,,122.0,0.008196721311475308,0.05803571428571429,0,0,0.049107142857142856,0,0,4971.0,0.0021697874493927126,0.0,0.0,0.0,1.0
uik7aoor,b2sjpg82,03af9f8b-508e-452c-9c35-0eeba0e3b3cc,5ce597fa-5f3d-45d1-9de6-95be128b374b,1,1,0,3,5772.0,2600.0,90.0,4.0,3086.0,20.0,,5702.0,0.5833333333333334,3.0,-0.2833333333333334,3,0,22.0,0.0,0.0,1,2,0.0,0.0,0.0,2.0,115.0,11.0,11.0,122.0,108.0,122.0,108.0,104,123.0,122.0,110.0,-0.008130081300813052,0.10576923076923077,0,0,0.10576923076923077,0,0,5166.0,0.004473876953125,0.0,0.0,0.0,1.0
uik7aoor,juhy06e8,03af9f8b-508e-452c-9c35-0eeba0e3b3cc,6e0cda1c-f51b-4272-8648-67e646ea1f31,1,1,0,3,4773.0,3800.0,0.0,0.0,4021.0,10.0,,4693.0,0.6666666666666666,8.0,0.13333333333333341,1,1,66.0,0.0,0.0,1,2,1.0,1.0,0.0,2.0,115.0,11.0,11.0,122.0,108.0,122.0,108.0,104,123.0,122.0,110.0,-0.008130081300813052,0.10576923076923077,0,0,0.10576923076923077,0,0,5061.0,0.004473876953125,0.0,0.0,0.0,1.0
uik7aoor,hliggtnp,03af9f8b-508e-452c-9c35-0eeba0e3b3cc,3fe9607c-4723-4d14-a5b2-7580b114fb2f,1,1,0,3,5676.0,2600.0,0.0,0.0,2982.0,21.0,,5556.0,1.0,3.0,-0.7,3,1,33.0,1.0,1.0,1,2,0.0,0.0,0.0,2.0,115.0,11.0,11.0,122.0,108.0,122.0,108.0,104,123.0,122.0,110.0,-0.008130081300813052,0.10576923076923077,0,0,0.10576923076923077,0,0,5166.0,0.004473876953125,0.5,0.5,0.0,0.0
uik7aoor,7y6562pk,03af9f8b-508e-452c-9c35-0eeba0e3b3cc,4b39ad0b-8a75-4ba9-9d24-05dd32fad900,1,1,0,3,4817.0,3800.0,0.0,0.0,4040.0,10.0,,4787.0,0.25,9.0,0.65,1,1,45.0,0.0,1.0,0,2,0.0,0.0,0.0,2.0,115.0,11.0,11.0,122.0,108.0,122.0,108.0,104,123.0,122.0,110.0,-0.008130081300813052,0.10576923076923077,0,0,0.10576923076923077,0,0,5080.0,0.004473876953125,0.0,0.0,0.0,1.0
uik7aoor,lk5oyxpy,03af9f8b-508e-452c-9c35-0eeba0e3b3cc,8fc4cd9a-1fbb-43de-85ce-82cb99d02a2a,1,1,0,3,4459.0,2600.0,0.0,0.0,3080.0,20.0,,4419.0,0.3333333333333333,10.0,0.6666666666666667,1,0,33.0,1.0,0.0,1,2,0.0,0.0,0.0,2.0,115.0,11.0,11.0,122.0,108.0,122.0,108.0,104,123.0,122.0,110.0,-0.008130081300813052,0.10576923076923077,0,0,0.10576923076923077,0,0,5160.0,0.004473876953125,0.0,0.0,0.0,1.0
uik7aoor,tgar6z2d,03af9f8b-508e-452c-9c35-0eeba0e3b3cc,9697f7a1-e2e7-4427-8b7e-fb165a1ab72c,1,1,0,3,4759.0,3800.0,88.0,5.0,3833.0,12.0,,4699.0,0.5,9.0,0.4,4,1,22.0,0.0,1.0,1,2,0.0,0.0,0.0,2.0,115.0,11.0,11.0,122.0,108.0,122.0,108.0,104,123.0,122.0,110.0,-0.008130081300813052,0.10576923076923077,0,0,0.10576923076923077,0,0,5081.0,0.004473876953125,0.0,0.0,0.0,1.0
uik7aoor,z3reux71,03af9f8b-508e-452c-9c35-0eeba0e3b3cc,e467cb8d-10d2-48db-935f-2418d69da971,1,1,0,3,5706.0,2600.0,77.0,3.0,3387.0,17.0,,5636.0,0.5833333333333334,9.0,0.31666666666666665,1,1,21.0,0.0,0.0,0,2,1.0,1.0,0.0,2.0,115.0,11.0,11.0,122.0,108.0,122.0,108.0,104,123.0,122.0,110.0,-0.008130081300813052,0.10576923076923077,0,0,0.10576923076923077,0,0,5155.0,0.004473876953125,0.0,0.0,1.0,0.0
uik7aoor,a12rmbju,03af9f8b-508e-452c-9c35-0eeba0e3b3cc,53beb2da-e31f-4578-baa8-2d398cbc80d4,1,1,0,3,5027.0,3800.0,0.0,0.0,4051.0,10.0,,4907.0,1.0,4.0,-0.6,2,0,23.0,1.0,1.0,1,2,0.0,0.0,0.0,2.0,115.0,11.0,11.0,122.0,108.0,122.0,108.0,104,123.0,122.0,110.0,-0.008130081300813052,0.10576923076923077,0,0,0.10576923076923077,0,0,5091.0,0.004473876953125,0.0,0.0,0.0,1.0
uik7aoor,b2sjpg82,03af9f8b-508e-452c-9c35-0eeba0e3b3cc,5ce597fa-5f3d-45d1-9de6-95be128b374b,1,1,0,4,5772.0,2600.0,,,2861.0,22.0,,5702.0,0.5833333333333334,3.0,-0.2833333333333334,3,0,22.0,0.0,0.0,1,2,2.0,0.0,2.0,5.0,112.4,16.4,16.4,110.0,123.0,123.0,106.0,96,122.0,123.0,111.0,-0.09836065573770492,0.1708333333333333,0,0,0.1708333333333334,0,0,4973.0,0.0036625,0.0,0.0,0.0,1.0
uik7aoor,juhy06e8,03af9f8b-508e-452c-9c35-0eeba0e3b3cc,6e0cda1c-f51b-4272-8648-67e646ea1f31,1,1,0,4,4773.0,3800.0,,,3898.0,11.0,,4693.0,0.6666666666666666,8.0,0.13333333333333341,1,1,66.0,0.0,0.0,1,2,1.0,0.0,1.0,5.0,112.4,16.4,16.4,110.0,123.0,123.0,106.0,96,122.0,123.0,111.0,-0.09836065573770492,0.1708333333333333,0,0,0.1708333333333334,0,0,4954.0,0.0036625,0.0,0.0,0.0,1.0
uik7aoor,hliggtnp,03af9f8b-508e-452c-9c35-0eeba0e3b3cc,3fe9607c-4723-4d14-a5b2-7580b114fb2f,1,1,0,4,5676.0,2600.0,,,2874.0,22.0,,5556.0,1.0,3.0,-0.7,3,1,33.0,1.0,1.0,1,2,1.0,0.0,1.0,5.0,112.4,16.4,16.4,110.0,123.0,123.0,106.0,96,122.0,123.0,111.0,-0.09836065573770492,0.1708333333333333,0,0,0.1708333333333334,0,0,4986.0,0.0036625,0.5,0.5,0.0,0.0
uik7aoor,7y6562pk,03af9f8b-508e-452c-9c35-0eeba0e3b3cc,4b39ad0b-8a75-4ba9-9d24-05dd32fad900,1,1,0,4,4817.0,3800.0,,,4040.0,10.0,,4787.0,0.25,9.0,0.65,1,1,45.0,0.0,1.0,0,2,0.0,0.0,0.0,5.0,112.4,16.4,16.4,110.0,123.0,123.0,106.0,96,122.0,123.0,111.0,-0.09836065573770492,0.1708333333333333,0,0,0.1708333333333334,0,0,5000.0,0.0036625,0.0,0.0,0.0,1.0
uik7aoor,lk5oyxpy,03af9f8b-508e-452c-9c35-0eeba0e3b3cc,8fc4cd9a-1fbb-43de-85ce-82cb99d02a2a,1,1,0,4,4459.0,2600.0,,,3080.0,20.0,,4419.0,0.3333333333333333,10.0,0.6666666666666667,1,0,33.0,1.0,0.0,1,2,0.0,0.0,0.0,5.0,112.4,16.4,16.4,110.0,123.0,123.0,106.0,96,122.0,123.0,111.0,-0.09836065573770492,0.1708333333333333,0,0,0.1708333333333334,0,0,5000.0,0.0036625,0.0,0.0,0.0,1.0
uik7aoor,tgar6z2d,03af9f8b-508e-452c-9c35-0eeba0e3b3cc,9697f7a1-e2e7-4427-8b7e-fb165a1ab72c,1,1,0,4,4759.0,3800.0,,,3833.0,12.0,,4699.0,0.5,9.0,0.4,4,1,22.0,0.0,1.0,1,2,0.0,0.0,0.0,5.0,112.4,16.4,16.4,110.0,123.0,123.0,106.0,96,122.0,123.0,111.0,-0.09836065573770492,0.1708333333333333,0,0,0.1708333333333334,0,0,4985.0,0.0036625,0.0,0.0,0.0,1.0
uik7aoor,z3reux71,03af9f8b-508e-452c-9c35-0eeba0e3b3cc,e467cb8d-10d2-48db-935f-2418d69da971,1,1,0,4,5706.0,2600.0,,,3493.0,16.0,,5636.0,0.5833333333333334,9.0,0.31666666666666665,1,1,21.0,0.0,0.0,0,2,0.0,1.0,-1.0,5.0,112.4,16.4,16.4,110.0,123.0,123.0,106.0,96,122.0,123.0,111.0,-0.09836065573770492,0.1708333333333333,0,0,0.1708333333333334,0,0,5029.0,0.0036625,0.0,0.0,1.0,0.0
uik7aoor,a12rmbju,03af9f8b-508e-452c-9c35-0eeba0e3b3cc,53beb2da-e31f-4578-baa8-2d398cbc80d4,1,1,0,4,5027.0,3800.0,,,4401.0,7.0,,4907.0,1.0,4.0,-0.6,2,0,23.0,1.0,1.0,1,2,1.0,4.0,-3.0,5.0,112.4,16.4,16.4,110.0,123.0,123.0,106.0,96,122.0,123.0,111.0,-0.09836065573770492,0.1708333333333333,0,0,0.1708333333333334,0,0,5073.0,0.0036625,0.0,0.0,0.0,1.0
uik7aoor,b2sjpg82,03af9f8b-508e-452c-9c35-0eeba0e3b3cc,5ce597fa-5f3d-45d1-9de6-95be128b374b,1,1,0,5,5772.0,2600.0,,,3189.0,19.0,,5702.0,0.5833333333333334,3.0,-0.2833333333333334,3,0,22.0,0.0,0.0,1,2,0.0,3.0,-3.0,3.0,109.33333333333333,21.333333333333332,21.333333333333332,111.0,107.0,111.0,107.0,88,110.0,122.0,84.0,0.009090909090909038,0.2424242424242424,0,0,0.24242424242424238,0,0,4861.0,0.006153944672131147,0.0,0.0,0.0,1.0
uik7aoor,juhy06e8,03af9f8b-508e-452c-9c35-0eeba0e3b3cc,6e0cda1c-f51b-4272-8648-67e646ea1f31,1,1,0,5,4773.0,3800.0,,,3898.0,11.0,,4693.0,0.6666666666666666,8.0,0.13333333333333341,1,1,66.0,0.0,0.0,1,2,0.0,0.0,0.0,3.0,109.33333333333333,21.333333333333332,21.333333333333332,111.0,107.0,111.0,107.0,88,110.0,122.0,84.0,0.009090909090909038,0.2424242424242424,0,0,0.24242424242424238,0,0,4866.0,0.006153944672131147,0.0,0.0,0.0,1.0
uik7aoor,hliggtnp,03af9f8b-508e-452c-9c35-0eeba0e3b3cc,3fe9607c-4723-4d14-a5b2-7580b114fb2f,1,1,0,5,5676.0,2600.0,,,2874.0,22.0,,5556.0,1.0,3.0,-0.7,3,1,33.0,1.0,1.0,1,2,0.0,0.0,0.0,3.0,109.33333333333333,21.333333333333332,21.333333333333332,111.0,107.0,111.0,107.0,88,110.0,122.0,84.0,0.009090909090909038,0.2424242424242424,0,0,0.24242424242424238,0,0,4810.0,0.006153944672131147,0.5,0.5,0.0,0.0
uik7aoor,7y6562pk,03af9f8b-508e-452c-9c35-0eeba0e3b3cc,4b39ad0b-8a75-4ba9-9d24-05dd32fad900,1,1,0,5,4817.0,3800.0,,,4040.0,10.0,,4787.0,0.25,9.0,0.65,1,1,45.0,0.0,1.0,0,2,0.0,0.0,0.0,3.0,109.33333333333333,21.333333333333332,21.333333333333332,111.0,107.0,111.0,107.0,88,110.0,122.0,84.0,0.009090909090909038,0.2424242424242424,0,0,0.24242424242424238,0,0,4920.0,0.006153944672131147,0.0,0.0,0.0,1.0
uik7aoor,lk5oyxpy,03af9f8b-508e-452c-9c35-0eeba0e3b3cc,8fc4cd9a-1fbb-43de-85ce-82cb99d02a2a,1,1,0,5,4459.0,2600.0,,,2970.0,21.0,,4419.0,0.3333333333333333,10.0,0.6666666666666667,1,0,33.0,1.0,0.0,1,2,1.0,0.0,1.0,3.0,109.33333333333333,21.333333333333332,21.333333333333332,111.0,107.0,111.0,107.0,88,110.0,122.0,84.0,0.009090909090909038,0.2424242424242424,0,0,0.24242424242424238,0,0,4818.0,0.006153944672131147,0.0,0.0,0.0,1.0
uik7aoor,tgar6z2d,03af9f8b-508e-452c-9c35-0eeba0e3b3cc,9697f7a1-e2e7-4427-8b7e-fb165a1ab72c,1,1,0,5,4759.0,3800.0,,,3833.0,12.0,,4699.0,0.5,9.0,0.4,4,1,22.0,0.0,1.0,1,2,0.0,0.0,0.0,3.0,109.33333333333333,21.333333333333332,21.333333333333332,111.0,107.0,111.0,107.0,88,110.0,122.0,84.0,0.009090909090909038,0.2424242424242424,0,0,0.24242424242424238,0,0,4889.0,0.006153944672131147,0.0,0.0,0.0,1.0
uik7aoor,z3reux71,03af9f8b-508e-452c-9c35-0eeba0e3b3cc,e467cb8d-10d2-48db-935f-2418d69da971,1,1,0,5,5706.0,2600.0,,,3382.0,17.0,,5636.0,0.5833333333333334,9.0,0.31666666666666665,1,1,21.0,0.0,0.0,0,2,1.0,0.0,1.0,3.0,109.33333333333333,21.333333333333332,21.333333333333332,111.0,107.0,111.0,107.0,88,110.0,122.0,84.0,0.009090909090909038,0.2424242424242424,0,0,0.24242424242424238,0,0,4878.0,0.006153944672131147,0.0,0.0,1.0,0.0
uik7aoor,a12rmbju,03af9f8b-508e-452c-9c35-0eeba0e3b3cc,53beb2da-e31f-4578-baa8-2d398cbc80d4,1,1,0,5,5027.0,3800.0,,,4294.0,8.0,,4907.0,1.0,4.0,-0.6,2,0,23.0,1.0,1.0,1,2,1.0,0.0,1.0,3.0,109.33333333333333,21.333333333333332,21.333333333333332,111.0,107.0,111.0,107.0,88,110.0,122.0,84.0,0.009090909090909038,0.2424242424242424,0,0,0.24242424242424238,0,0,4998.0,0.006153944672131147,0.0,0.0,0.0,1.0
uik7aoor,b2sjpg82,03af9f8b-508e-452c-9c35-0eeba0e3b3cc,5ce597fa-5f3d-45d1-9de6-95be128b374b,1,1,0,6,5772.0,2600.0,0.0,0.0,3337.0,19.0,,5702.0,0.5833333333333334,3.0,-0.2833333333333334,3,0,22.0,0.0,0.0,1,2,1.0,1.0,0.0,3.0,93.0,13.0,13.0,84.0,107.0,107.0,84.0,80,111.0,110.0,80.0,-0.2432432432432432,0.1625,0,0,0.1625,0,0,4857.0,0.0069736168032786885,0.0,0.0,0.0,1.0
uik7aoor,juhy06e8,03af9f8b-508e-452c-9c35-0eeba0e3b3cc,6e0cda1c-f51b-4272-8648-67e646ea1f31,1,1,0,6,4773.0,3800.0,0.0,0.0,3986.0,11.0,,4693.0,0.6666666666666666,8.0,0.13333333333333341,1,1,66.0,0.0,0.0,1,2,0.0,0.0,0.0,3.0,93.0,13.0,13.0,84.0,107.0,107.0,84.0,80,111.0,110.0,80.0,-0.2432432432432432,0.1625,0,0,0.1625,0,0,4866.0,0.0069736168032786885,0.0,0.0,0.0,1.0
uik7aoor,hliggtnp,03af9f8b-508e-452c-9c35-0eeba0e3b3cc,3fe9607c-4723-4d14-a5b2-7580b114fb2f,1,1,0,6,5676.0,2600.0,0.0,0.0,3050.0,22.0,,5556.0,1.0,3.0,-0.7,3,1,33.0,1.0,1.0,1,2,0.0,0.0,0.0,3.0,93.0,13.0,13.0,84.0,107.0,107.0,84.0,80,111.0,110.0,80.0,-0.2432432432432432,0.1625,0,0,0.1625,0,0,4810.0,0.0069736168032786885,0.5,0.5,0.0,0.0
uik7aoor,7y6562pk,03af9f8b-508e-452c-9c35-0eeba0e3b3cc,4b39ad0b-8a75-4ba9-9d24-05dd32fad900,1,1,0,6,4817.0,3800.0,0.0,0.0,4120.0,10.0,,4787.0,0.25,9.0,0.65,1,1,45.0,0.0,1.0,0,2,0.0,0.0,0.0,3.0,93.0,13.0,13.0,84.0,107.0,107.0,84.0,80,111.0,110.0,80.0,-0.2432432432432432,0.1625,0,0,0.1625,0,0,4920.0,0.0069736168032786885,0.0,0.0,0.0,1.0
uik7aoor,lk5oyxpy,03af9f8b-508e-452c-9c35-0eeba0e3b3cc,8fc4cd9a-1fbb-43de-85ce-82cb99d02a2a,1,1,0,6,4459.0,2600.0,0.0,0.0,3031.0,22.0,,4419.0,0.3333333333333333,10.0,0.6666666666666667,1,0,33.0,1.0,0.0,1,2,1.0,0.0,1.0,3.0,93.0,13.0,13.0,84.0,107.0,107.0,84.0,80,111.0,110.0,80.0,-0.2432432432432432,0.1625,0,0,0.1625,0,0,4791.0,0.0069736168032786885,0.0,0.0,0.0,1.0
uik7aoor,tgar6z2d,03af9f8b-508e-452c-9c35-0eeba0e3b3cc,9697f7a1-e2e7-4427-8b7e-fb165a1ab72c,1,1,0,6,4759.0,3800.0,0.0,0.0,3929.0,12.0,,4699.0,0.5,9.0,0.4,4,1,22.0,0.0,1.0,1,2,0.0,0.0,0.0,3.0,93.0,13.0,13.0,84.0,107.0,107.0,84.0,80,111.0,110.0,80.0,-0.2432432432432432,0.1625,0,0,0.1625,0,0,4889.0,0.0069736168032786885,0.0,0.0,0.0,1.0
uik7aoor,z3reux71,03af9f8b-508e-452c-9c35-0eeba0e3b3cc,e467cb8d-10d2-48db-935f-2418d69da971,1,1,0,6,5706.0,2600.0,0.0,0.0,3629.0,16.0,,5636.0,0.5833333333333334,9.0,0.31666666666666665,1,1,21.0,0.0,0.0,0,2,1.0,2.0,-1.0,3.0,93.0,13.0,13.0,84.0,107.0,107.0,84.0,80,111.0,110.0,80.0,-0.2432432432432432,0.1625,0,0,0.1625,0,0,4909.0,0.0069736168032786885,0.0,0.0,1.0,0.0
uik7aoor,a12rmbju,03af9f8b-508e-452c-9c35-0eeba0e3b3cc,53beb2da-e31f-4578-baa8-2d398cbc80d4,1,1,0,6,5027.0,3800.0,0.0,0.0,4358.0,8.0,,4907.0,1.0,4.0,-0.6,2,0,23.0,1.0,1.0,1,2,0.0,0.0,0.0,3.0,93.0,13.0,13.0,84.0,107.0,107.0,84.0,80,111.0,110.0,80.0,-0.2432432432432432,0.1625,0,0,0.1625,0,0,4998.0,0.0069736168032786885,0.0,0.0,0.0,1.0
uik7aoor,b2sjpg82,03af9f8b-508e-452c-9c35-0eeba0e3b3cc,5ce597fa-5f3d-45d1-9de6-95be128b374b,1,1,0,7,5772.0,2600.0,,,3413.0,19.0,,5702.0,0.5833333333333334,3.0,-0.2833333333333334,3,0,22.0,0.0,0.0,1,2,0.0,0.0,0.0,3.0,79.0,7.0,7.0,80.0,80.0,80.0,77.0,72,84.0,111.0,62.0,-0.04761904761904767,0.09722222222222222,0,0,0.09722222222222222,0,0,4781.0,0.00931664937759336,0.0,0.0,0.0,1.0
uik7aoor,juhy06e8,03af9f8b-508e-452c-9c35-0eeba0e3b3cc,6e0cda1c-f51b-4272-8648-67e646ea1f31,1,1,0,7,4773.0,3800.0,,,4027.0,11.0,,4693.0,0.6666666666666666,8.0,0.13333333333333341,1,1,66.0,0.0,0.0,1,2,1.0,1.0,0.0,3.0,79.0,7.0,7.0,80.0,80.0,80.0,77.0,72,84.0,111.0,62.0,-0.04761904761904767,0.09722222222222222,0,0,0.09722222222222222,0,0,4819.0,0.00931664937759336,0.0,0.0,0.0,1.0
uik7aoor,hliggtnp,03af9f8b-508e-452c-9c35-0eeba0e3b3cc,3fe9607c-4723-4d14-a5b2-7580b114fb2f,1,1,0,7,5676.0,2600.0,,,3138.0,22.0,,5556.0,1.0,3.0,-0.7,3,1,33.0,1.0,1.0,1,2,0.0,0.0,0.0,3.0,79.0,7.0,7.0,80.0,80.0,80.0,77.0,72,84.0,111.0,62.0,-0.04761904761904767,0.09722222222222222,0,0,0.09722222222222222,0,0,4722.0,0.00931664937759336,0.5,0.5,0.0,0.0
uik7aoor,7y6562pk,03af9f8b-508e-452c-9c35-0eeba0e3b3cc,4b39ad0b-8a75-4ba9-9d24-05dd32fad900,1,1,0,7,4817.0,3800.0,,,4160.0,10.0,,4787.0,0.25,9.0,0.65,1,1,45.0,0.0,1.0,0,2,0.0,0.0,0.0,3.0,79.0,7.0,7.0,80.0,80.0,80.0,77.0,72,84.0,111.0,62.0,-0.04761904761904767,0.09722222222222222,0,0,0.09722222222222222,0,0,4880.0,0.00931664937759336,0.0,0.0,0.0,1.0
uik7aoor,lk5oyxpy,03af9f8b-508e-452c-9c35-0eeba0e3b3cc,8fc4cd9a-1fbb-43de-85ce-82cb99d02a2a,1,1,0,7,4459.0,2600.0,,,3119.0,22.0,,4419.0,0.3333333333333333,10.0,0.6666666666666667,1,0,33.0,1.0,0.0,1,2,0.0,0.0,0.0,3.0,79.0,7.0,7.0,80.0,80.0,80.0,77.0,72,84.0,111.0,62.0,-0.04761904761904767,0.09722222222222222,0,0,0.09722222222222222,0,0,4703.0,0.00931664937759336,0.0,0.0,0.0,1.0
uik7aoor,tgar6z2d,03af9f8b-508e-452c-9c35-0eeba0e3b3cc,9697f7a1-e2e7-4427-8b7e-fb165a1ab72c,1,1,0,7,4759.0,3800.0,,,4057.0,11.0,,4699.0,0.5,9.0,0.4,4,1,22.0,0.0,1.0,1,2,0.0,1.0,-1.0,3.0,79.0,7.0,7.0,80.0,80.0,80.0,77.0,72,84.0,111.0,62.0,-0.04761904761904767,0.09722222222222222,0,0,0.09722222222222222,0,0,4849.0,0.00931664937759336,0.0,0.0,0.0,1.0
uik7aoor,z3reux71,03af9f8b-508e-452c-9c35-0eeba0e3b3cc,e467cb8d-10d2-48db-935f-2418d69da971,1,1,0,7,5706.0,2600.0,,,3613.0,17.0,,5636.0,0.5833333333333334,9.0,0.31666666666666665,1,1,21.0,0.0,0.0,0,2,1.0,0.0,1.0,3.0,79.0,7.0,7.0,80.0,80.0,80.0,77.0,72,84.0,111.0,62.0,-0.04761904761904767,0.09722222222222222,0,0,0.09722222222222222,0,0,4837.0,0.00931664937759336,0.0,0.0,1.0,0.0
uik7aoor,a12rmbju,03af9f8b-508e-452c-9c35-0eeba0e3b3cc,53beb2da-e31f-4578-baa8-2d398cbc80d4,1,1,0,7,5027.0,3800.0,,,4393.0,8.0,,4907.0,1.0,4.0,-0.6,2,0,23.0,1.0,1.0,1,2,1.0,1.0,0.0,3.0,79.0,7.0,7.0,80.0,80.0,80.0,77.0,72,84.0,111.0,62.0,-0.04761904761904767,0.09722222222222222,0,0,0.09722222222222222,0,0,4969.0,0.00931664937759336,0.0,0.0,0.0,1.0
uik7aoor,b2sjpg82,03af9f8b-508e-452c-9c35-0eeba0e3b3cc,5ce597fa-5f3d-45d1-9de6-95be128b374b,1,1,0,8,5772.0,2600.0,,,3489.0,19.0,,5702.0,0.5833333333333334,3.0,-0.2833333333333334,3,0,22.0,0.0,0.0,1,2,0.0,0.0,0.0,5.0,63.4,-0.6,1.8,62.0,66.0,66.0,62.0,64,80.0,84.0,58.0,-0.22499999999999998,0.028125,0,0,-0.009375000000000022,0,0,4705.0,0.01173844537815126,0.0,0.0,0.0,1.0
uik7aoor,juhy06e8,03af9f8b-508e-452c-9c35-0eeba0e3b3cc,6e0cda1c-f51b-4272-8648-67e646ea1f31,1,1,0,8,4773.0,3800.0,,,4137.0,10.0,,4693.0,0.6666666666666666,8.0,0.13333333333333341,1,1,66.0,0.0,0.0,1,2,1.0,2.0,-1.0,5.0,63.4,-0.6,1.8,62.0,66.0,66.0,62.0,64,80.0,84.0,58.0,-0.22499999999999998,0.028125,0,0,-0.009375000000000022,0,0,4777.0,0.01173844537815126,0.0,0.0,0.0,1.0
uik7aoor,hliggtnp,03af9f8b-508e-452c-9c35-0eeba0e3b3cc,3fe9607c-4723-4d14-a5b2-7580b114fb2f,1,1,0,8,5676.0,2600.0,,,3164.0,23.0,,5556.0,1.0,3.0,-0.7,3,1,33.0,1.0,1.0,1,2,1.0,0.0,1.0,5.0,63.4,-0.6,1.8,62.0,66.0,66.0,62.0,64,80.0,84.0,58.0,-0.22499999999999998,0.028125,0,0,-0.009375000000000022,0,0,4636.0,0.01173844537815126,0.5,0.5,0.0,0.0
uik7aoor,7y6562pk,03af9f8b-508e-452c-9c35-0eeba0e3b3cc,4b39ad0b-8a75-4ba9-9d24-05dd32fad900,1,1,0,8,4817.0,3800.0,,,4069.0,12.0,,4787.0,0.25,9.0,0.65,1,1,45.0,0.0,1.0,0,2,2.0,0.0,2.0,5.0,63.4,-0.6,1.8,62.0,66.0,66.0,62.0,64,80.0,84.0,58.0,-0.22499999999999998,0.028125,0,0,-0.009375000000000022,0,0,4837.0,0.01173844537815126,0.0,0.0,0.0,1.0
uik7aoor,lk5oyxpy,03af9f8b-508e-452c-9c35-0eeba0e3b3cc,8fc4cd9a-1fbb-43de-85ce-82cb99d02a2a,1,1,0,8,4459.0,2600.0,,,3207.0,22.0,,4419.0,0.3333333333333333,10.0,0.6666666666666667,1,0,33.0,1.0,0.0,1,2,0.0,0.0,0.0,5.0,63.4,-0.6,1.8,62.0,66.0,66.0,62.0,64,80.0,84.0,58.0,-0.22499999999999998,0.028125,0,0,-0.009375000000000022,0,0,4615.0,0.01173844537815126,0.0,0.0,0.0,1.0
uik7aoor,tgar6z2d,03af9f8b-508e-452c-9c35-0eeba0e3b3cc,9697f7a1-e2e7-4427-8b7e-fb165a1ab72c,1,1,0,8,4759.0,3800.0,,,4225.0,9.0,,4699.0,0.5,9.0,0.4,4,1,22.0,0.0,1.0,1,2,0.0,2.0,-2.0,5.0,63.4,-0.6,1.8,62.0,66.0,66.0,62.0,64,80.0,84.0,58.0,-0.22499999999999998,0.028125,0,0,-0.009375000000000022,0,0,4801.0,0.01173844537815126,0.0,0.0,0.0,1.0
uik7aoor,z3reux71,03af9f8b-508e-452c-9c35-0eeba0e3b3cc,e467cb8d-10d2-48db-935f-2418d69da971,1,1,0,8,5706.0,2600.0,,,3681.0,17.0,,5636.0,0.5833333333333334,9.0,0.31666666666666665,1,1,21.0,0.0,0.0,0,2,0.0,0.0,0.0,5.0,63.4,-0.6,1.8,62.0,66.0,66.0,62.0,64,80.0,84.0,58.0,-0.22499999999999998,0.028125,0,0,-0.009375000000000022,0,0,4769.0,0.01173844537815126,0.0,0.0,1.0,0.0
uik7aoor,a12rmbju,03af9f8b-508e-452c-9c35-0eeba0e3b3cc,53beb2da-e31f-4578-baa8-2d398cbc80d4,1,1,0,8,5027.0,3800.0,,,4428.0,8.0,,4907.0,1.0,4.0,-0.6,2,0,23.0,1.0,1.0,1,2,1.0,1.0,0.0,5.0,63.4,-0.6,1.8,62.0,66.0,66.0,62.0,64,80.0,84.0,58.0,-0.22499999999999998,0.028125,0,0,-0.009375000000000022,0,0,4940.0,0.01173844537815126,0.0,0.0,0.0,1.0
uik7aoor,b2sjpg82,03af9f8b-508e-452c-9c35-0eeba0e3b3cc,5ce597fa-5f3d-45d1-9de6-95be128b374b,1,1,0,9,5772.0,2600.0,0.0,0.0,3507.0,20.0,,5702.0,0.5833333333333334,3.0,-0.2833333333333334,3,0,22.0,0.0,0.0,1,2,1.0,0.0,1.0,4.0,56.25,0.25,1.75,58.0,58.0,58.0,54.0,56,62.0,80.0,44.0,-0.06451612903225812,0.03125,0,0,0.004464285714285714,0,0,4627.0,0.014341755319148936,0.0,0.0,0.0,1.0
uik7aoor,juhy06e8,03af9f8b-508e-452c-9c35-0eeba0e3b3cc,6e0cda1c-f51b-4272-8648-67e646ea1f31,1,1,0,9,4773.0,3800.0,0.0,0.0,4177.0,10.0,,4693.0,0.6666666666666666,8.0,0.13333333333333341,1,1,66.0,0.0,0.0,1,2,0.0,0.0,0.0,4.0,56.25,0.25,1.75,58.0,58.0,58.0,54.0,56,62.0,80.0,44.0,-0.06451612903225812,0.03125,0,0,0.004464285714285714,0,0,4737.0,0.014341755319148936,0.0,0.0,0.0,1.0
uik7aoor,hliggtnp,03af9f8b-508e-452c-9c35-0eeba0e3b3cc,3fe9607c-4723-4d14-a5b2-7580b114fb2f,1,1,0,9,5676.0,2600.0,0.0,0.0,3315.0,22.0,,5556.0,1.0,3.0,-0.7,3,1,33.0,1.0,1.0,1,2,1.0,2.0,-1.0,4.0,56.25,0.25,1.75,58.0,58.0,58.0,54.0,56,62.0,80.0,44.0,-0.06451612903225812,0.03125,0,0,0.004464285714285714,0,0,4547.0,0.014341755319148936,0.5,0.5,0.0,0.0
uik7aoor,7y6562pk,03af9f8b-508e-452c-9c35-0eeba0e3b3cc,4b39ad0b-8a75-4ba9-9d24-05dd32fad900,1,1,0,9,4817.0,3800.0,0.0,0.0,4117.0,12.0,,4787.0,0.25,9.0,0.65,1,1,45.0,0.0,1.0,0,2,0.0,0.0,0.0,4.0,56.25,0.25,1.75,58.0,58.0,58.0,54.0,56,62.0,80.0,44.0,-0.06451612903225812,0.03125,0,0,0.004464285714285714,0,0,4789.0,0.014341755319148936,0.0,0.0,0.0,1.0
uik7aoor,lk5oyxpy,03af9f8b-508e-452c-9c35-0eeba0e3b3cc,8fc4cd9a-1fbb-43de-85ce-82cb99d02a2a,1,1,0,9,4459.0,2600.0,0.0,0.0,3240.0,23.0,,4419.0,0.3333333333333333,10.0,0.6666666666666667,1,0,33.0,1.0,0.0,1,2,1.0,0.0,1.0,4.0,56.25,0.25,1.75,58.0,58.0,58.0,54.0,56,62.0,80.0,44.0,-0.06451612903225812,0.03125,0,0,0.004464285714285714,0,0,4528.0,0.014341755319148936,0.0,0.0,0.0,1.0
uik7aoor,tgar6z2d,03af9f8b-508e-452c-9c35-0eeba0e3b3cc,9697f7a1-e2e7-4427-8b7e-fb165a1ab72c,1,1,0,9,4759.0,3800.0,0.0,0.0,4203.0,10.0,,4699.0,0.5,9.0,0.4,4,1,22.0,0.0,1.0,1,2,1.0,0.0,1.0,4.0,56.25,0.25,1.75,58.0,58.0,58.0,54.0,56,62.0,80.0,44.0,-0.06451612903225812,0.03125,0,0,0.004464285714285714,0,0,4763.0,0.014341755319148936,0.0,0.0,0.0,1.0
uik7aoor,z3reux71,03af9f8b-508e-452c-9c35-0eeba0e3b3cc,e467cb8d-10d2-48db-935f-2418d69da971,1,1,0,9,5706.0,2600.0,0.0,0.0,3861.0,15.0,,5636.0,0.5833333333333334,9.0,0.31666666666666665,1,1,21.0,0.0,0.0,0,2,0.0,2.0,-2.0,4.0,56.25,0.25,1.75,58.0,58.0,58.0,54.0,56,62.0,80.0,44.0,-0.06451612903225812,0.03125,0,0,0.004464285714285714,0,0,4701.0,0.014341755319148936,0.0,0.0,1.0,0.0
uik7aoor,a12rmbju,03af9f8b-508e-452c-9c35-0eeba0e3b3cc,53beb2da-e31f-4578-baa8-2d398cbc80d4,1,1,0,9,5027.0,3800.0,0.0,0.0,4460.0,8.0,,4907.0,1.0,4.0,-0.6,2,0,23.0,1.0,1.0,1,2,0.0,0.0,0.0,4.0,56.25,0.25,1.75,58.0,58.0,58.0,54.0,56,62.0,80.0,44.0,-0.06451612903225812,0.03125,0,0,0.004464285714285714,0,0,4908.0,0.014341755319148936,0.0,0.0,0.0,1.0
uik7aoor,b2sjpg82,03af9f8b-508e-452c-9c35-0eeba0e3b3cc,5ce597fa-5f3d-45d1-9de6-95be128b374b,1,1,0,10,5772.0,2600.0,,,4009.0,18.0,,5702.0,0.5833333333333334,3.0,-0.2833333333333334,3,0,22.0,0.0,0.0,1,2,0.0,2.0,-2.0,5.0,50.2,2.2,3.8,44.0,54.0,55.0,44.0,48,58.0,62.0,50.0,-0.24137931034482762,0.07916666666666666,0,0,0.04583333333333339,0,0,4873.0,0.007841281211625051,0.0,0.0,0.0,1.0
uik7aoor,juhy06e8,03af9f8b-508e-452c-9c35-0eeba0e3b3cc,6e0cda1c-f51b-4272-8648-67e646ea1f31,1,1,0,10,4773.0,3800.0,,,4377.0,10.0,,4693.0,0.6666666666666666,8.0,0.13333333333333341,1,1,66.0,0.0,0.0,1,2,0.0,0.0,0.0,5.0,50.2,2.2,3.8,44.0,54.0,55.0,44.0,48,58.0,62.0,50.0,-0.24137931034482762,0.07916666666666666,0,0,0.04583333333333339,0,0,4857.0,0.007841281211625051,0.0,0.0,0.0,1.0
uik7aoor,hliggtnp,03af9f8b-508e-452c-9c35-0eeba0e3b3cc,3fe9607c-4723-4d14-a5b2-7580b114fb2f,1,1,0,10,5676.0,2600.0,,,3705.0,23.0,,5556.0,1.0,3.0,-0.7,3,1,33.0,1.0,1.0,1,2,1.0,0.0,1.0,5.0,50.2,2.2,3.8,44.0,54.0,55.0,44.0,48,58.0,62.0,50.0,-0.24137931034482762,0.07916666666666666,0,0,0.04583333333333339,0,0,4809.0,0.007841281211625051,0.5,0.5,0.0,0.0
uik7aoor,7y6562pk,03af9f8b-508e-452c-9c35-0eeba0e3b3cc,4b39ad0b-8a75-4ba9-9d24-05dd32fad900,1,1,0,10,4817.0,3800.0,,,4401.0,12.0,,4787.0,0.25,9.0,0.65,1,1,45.0,0.0,1.0,0,2,0.0,1.0,-1.0,5.0,50.2,2.2,3.8,44.0,54.0,55.0,44.0,48,58.0,62.0,50.0,-0.24137931034482762,0.07916666666666666,0,0,0.04583333333333339,0,0,4977.0,0.007841281211625051,0.0,0.0,0.0,1.0
uik7aoor,lk5oyxpy,03af9f8b-508e-452c-9c35-0eeba0e3b3cc,8fc4cd9a-1fbb-43de-85ce-82cb99d02a2a,1,1,0,10,4459.0,2600.0,,,3645.0,24.0,,4419.0,0.3333333333333333,10.0,0.6666666666666667,1,0,33.0,1.0,0.0,1,2,1.0,0.0,1.0,5.0,50.2,2.2,3.8,44.0,54.0,55.0,44.0,48,58.0,62.0,50.0,-0.24137931034482762,0.07916666666666666,0,0,0.04583333333333339,0,0,4797.0,0.007841281211625051,0.0,0.0,0.0,1.0
uik7aoor,tgar6z2d,03af9f8b-508e-452c-9c35-0eeba0e3b3cc,9697f7a1-e2e7-4427-8b7e-fb165a1ab72c,1,1,0,10,4759.0,3800.0,,,4405.0,10.0,,4699.0,0.5,9.0,0.4,4,1,22.0,0.0,1.0,1,2,1.0,1.0,0.0,5.0,50.2,2.2,3.8,44.0,54.0,55.0,44.0,48,58.0,62.0,50.0,-0.24137931034482762,0.07916666666666666,0,0,0.04583333333333339,0,0,4885.0,0.007841281211625051,0.0,0.0,0.0,1.0
uik7aoor,z3reux71,03af9f8b-508e-452c-9c35-0eeba0e3b3cc,e467cb8d-10d2-48db-935f-2418d69da971,1,1,0,10,5706.0,2600.0,,,4107.0,16.0,,5636.0,0.5833333333333334,9.0,0.31666666666666665,1,1,21.0,0.0,0.0,0,2,1.0,0.0,1.0,5.0,50.2,2.2,3.8,44.0,54.0,55.0,44.0,48,58.0,62.0,50.0,-0.24137931034482762,0.07916666666666666,0,0,0.04583333333333339,0,0,4875.0,0.007841281211625051,0.0,0.0,1.0,0.0
uik7aoor,a12rmbju,03af9f8b-508e-452c-9c35-0eeba0e3b3cc,53beb2da-e31f-4578-baa8-2d398cbc80d4,1,1,0,10,5027.0,3800.0,,,4631.0,8.0,,4907.0,1.0,4.0,-0.6,2,0,23.0,1.0,1.0,1,2,1.0,1.0,0.0,5.0,50.2,2.2,3.8,44.0,54.0,55.0,44.0,48,58.0,62.0,50.0,-0.24137931034482762,0.07916666666666666,0,0,0.04583333333333339,0,0,5015.0,0.007841281211625051,0.0,0.0,0.0,1.0
uik7aoor,b2sjpg82,03af9f8b-508e-452c-9c35-0eeba0e3b3cc,5ce597fa-5f3d-45d1-9de6-95be128b374b,1,1,0,11,5772.0,2600.0,,,4103.0,19.0,,5702.0,0.5833333333333334,3.0,-0.2833333333333334,3,0,22.0,0.0,0.0,1,2,1.0,0.0,1.0,4.0,44.0,4.0,5.0,50.0,44.0,50.0,38.0,40,44.0,58.0,45.0,0.13636363636363646,0.125,0,0,0.1,0,0,4863.0,0.007324318787133784,0.0,0.0,0.0,1.0
uik7aoor,juhy06e8,03af9f8b-508e-452c-9c35-0eeba0e3b3cc,6e0cda1c-f51b-4272-8648-67e646ea1f31,1,1,0,11,4773.0,3800.0,,,4457.0,10.0,,4693.0,0.6666666666666666,8.0,0.13333333333333341,1,1,66.0,0.0,0.0,1,2,0.0,0.0,0.0,4.0,44.0,4.0,5.0,50.0,44.0,50.0,38.0,40,44.0,58.0,45.0,0.13636363636363646,0.125,0,0,0.1,0,0,4857.0,0.007324318787133784,0.0,0.0,0.0,1.0
uik7aoor,hliggtnp,03af9f8b-508e-452c-9c35-0eeba0e3b3cc,3fe9607c-4723-4d14-a5b2-7580b114fb2f,1,1,0,11,5676.0,2600.0,,,3889.0,23.0,,5556.0,1.0,3.0,-0.7,3,1,33.0,1.0,1.0,1,2,0.0,0.0,0.0,4.0,44.0,4.0,5.0,50.0,44.0,50.0,38.0,40,44.0,58.0,45.0,0.13636363636363646,0.125,0,0,0.1,0,0,4809.0,0.007324318787133784,0.5,0.5,0.0,0.0
uik7aoor,7y6562pk,03af9f8b-508e-452c-9c35-0eeba0e3b3cc,4b39ad0b-8a75-4ba9-9d24-05dd32fad900,1,1,0,11,4817.0,3800.0,,,4547.0,10.0,,4787.0,0.25,9.0,0.65,1,1,45.0,0.0,1.0,0,2,1.0,2.0,-1.0,4.0,44.0,4.0,5.0,50.0,44.0,50.0,38.0,40,44.0,58.0,45.0,0.13636363636363646,0.125,0,0,0.1,0,0,4947.0,0.007324318787133784,0.0,0.0,0.0,1.0
uik7aoor,lk5oyxpy,03af9f8b-508e-452c-9c35-0eeba0e3b3cc,8fc4cd9a-1fbb-43de-85ce-82cb99d02a2a,1,1,0,11,4459.0,2600.0,,,3837.0,24.0,,4419.0,0.3333333333333333,10.0,0.6666666666666667,1,0,33.0,1.0,0.0,1,2,0.0,0.0,0.0,4.0,44.0,4.0,5.0,50.0,44.0,50.0,38.0,40,44.0,58.0,45.0,0.13636363636363646,0.125,0,0,0.1,0,0,4797.0,0.007324318787133784,0.0,0.0,0.0,1.0
uik7aoor,tgar6z2d,03af9f8b-508e-452c-9c35-0eeba0e3b3cc,9697f7a1-e2e7-4427-8b7e-fb165a1ab72c,1,1,0,11,4759.0,3800.0,,,4485.0,10.0,,4699.0,0.5,9.0,0.4,4,1,22.0,0.0,1.0,1,2,0.0,0.0,0.0,4.0,44.0,4.0,5.0,50.0,44.0,50.0,38.0,40,44.0,58.0,45.0,0.13636363636363646,0.125,0,0,0.1,0,0,4885.0,0.007324318787133784,0.0,0.0,0.0,1.0
uik7aoor,z3reux71,03af9f8b-508e-452c-9c35-0eeba0e3b3cc,e467cb8d-10d2-48db-935f-2418d69da971,1,1,0,11,5706.0,2600.0,,,4279.0,15.0,,5636.0,0.5833333333333334,9.0,0.31666666666666665,1,1,21.0,0.0,0.0,0,2,1.0,2.0,-1.0,4.0,44.0,4.0,5.0,50.0,44.0,50.0,38.0,40,44.0,58.0,45.0,0.13636363636363646,0.125,0,0,0.1,0,0,4879.0,0.007324318787133784,0.0,0.0,1.0,0.0
uik7aoor,a12rmbju,03af9f8b-508e-452c-9c35-0eeba0e3b3cc,53beb2da-e31f-4578-baa8-2d398cbc80d4,1,1,0,11,5027.0,3800.0,,,4651.0,9.0,,4907.0,1.0,4.0,-0.6,2,0,23.0,1.0,1.0,1,2,1.0,0.0,1.0,4.0,44.0,4.0,5.0,50.0,44.0,50.0,38.0,40,44.0,58.0,45.0,0.13636363636363646,0.125,0,0,0.1,0,0,5011.0,0.007324318787133784,0.0,0.0,0.0,1.0
uik7aoor,b2sjpg82,03af9f8b-508e-452c-9c35-0eeba0e3b3cc,5ce597fa-5f3d-45d1-9de6-95be128b374b,1,1,0,12,5772.0,2600.0,66.0,3.0,4245.0,20.0,,5702.0,0.5833333333333334,3.0,-0.2833333333333334,3,0,22.0,0.0,0.0,1,2,1.0,1.0,0.0,5.0,47.8,15.8,15.8,45.0,55.0,55.0,45.0,32,50.0,44.0,22.0,-0.09999999999999998,0.49375,0,0,0.4937499999999999,0,0,4885.0,0.006844933469805527,0.0,0.0,0.0,1.0
uik7aoor,juhy06e8,03af9f8b-508e-452c-9c35-0eeba0e3b3cc,6e0cda1c-f51b-4272-8648-67e646ea1f31,1,1,0,12,4773.0,3800.0,0.0,0.0,4537.0,10.0,,4693.0,0.6666666666666666,8.0,0.13333333333333341,1,1,66.0,0.0,0.0,1,2,0.0,0.0,0.0,5.0,47.8,15.8,15.8,45.0,55.0,55.0,45.0,32,50.0,44.0,22.0,-0.09999999999999998,0.49375,0,0,0.4937499999999999,0,0,4857.0,0.006844933469805527,0.0,0.0,0.0,1.0
uik7aoor,hliggtnp,03af9f8b-508e-452c-9c35-0eeba0e3b3cc,3fe9607c-4723-4d14-a5b2-7580b114fb2f,1,1,0,12,5676.0,2600.0,0.0,0.0,4163.0,21.0,,5556.0,1.0,3.0,-0.7,3,1,33.0,1.0,1.0,1,2,0.0,2.0,-2.0,5.0,47.8,15.8,15.8,45.0,55.0,55.0,45.0,32,50.0,44.0,22.0,-0.09999999999999998,0.49375,0,0,0.4937499999999999,0,0,4835.0,0.006844933469805527,0.5,0.5,0.0,0.0
uik7aoor,7y6562pk,03af9f8b-508e-452c-9c35-0eeba0e3b3cc,4b39ad0b-8a75-4ba9-9d24-05dd32fad900,1,1,0,12,4817.0,3800.0,0.0,0.0,4627.0,10.0,,4787.0,0.25,9.0,0.65,1,1,45.0,0.0,1.0,0,2,0.0,0.0,0.0,5.0,47.8,15.8,15.8,45.0,55.0,55.0,45.0,32,50.0,44.0,22.0,-0.09999999999999998,0.49375,0,0,0.4937499999999999,0,0,4947.0,0.006844933469805527,0.0,0.0,0.0,1.0
uik7aoor,lk5oyxpy,03af9f8b-508e-452c-9c35-0eeba0e3b3cc,8fc4cd9a-1fbb-43de-85ce-82cb99d02a2a,1,1,0,12,4459.0,2600.0,0.0,0.0,4033.0,24.0,,4419.0,0.3333333333333333,10.0,0.6666666666666667,1,0,33.0,1.0,0.0,1,2,1.0,1.0,0.0,5.0,47.8,15.8,15.8,45.0,55.0,55.0,45.0,32,50.0,44.0,22.0,-0.09999999999999998,0.49375,0,0,0.4937499999999999,0,0,4801.0,0.006844933469805527,0.0,0.0,0.0,1.0
uik7aoor,tgar6z2d,03af9f8b-508e-452c-9c35-0eeba0e3b3cc,9697f7a1-e2e7-4427-8b7e-fb165a1ab72c,1,1,0,12,4759.0,3800.0,88.0,5.0,4565.0,10.0,,4699.0,0.5,9.0,0.4,4,1,22.0,0.0,1.0,1,2,0.0,0.0,0.0,5.0,47.8,15.8,15.8,45.0,55.0,55.0,45.0,32,50.0,44.0,22.0,-0.09999999999999998,0.49375,0,0,0.4937499999999999,0,0,4885.0,0.006844933469805527,0.0,0.0,0.0,1.0
uik7aoor,z3reux71,03af9f8b-508e-452c-9c35-0eeba0e3b3cc,e467cb8d-10d2-48db-935f-2418d69da971,1,1,0,12,5706.0,2600.0,0.0,0.0,4315.0,17.0,,5636.0,0.5833333333333334,9.0,0.31666666666666665,1,1,21.0,0.0,0.0,0,2,3.0,1.0,2.0,5.0,47.8,15.8,15.8,45.0,55.0,55.0,45.0,32,50.0,44.0,22.0,-0.09999999999999998,0.49375,0,0,0.4937499999999999,0,0,4859.0,0.006844933469805527,0.0,0.0,1.0,0.0
uik7aoor,a12rmbju,03af9f8b-508e-452c-9c35-0eeba0e3b3cc,53beb2da-e31f-4578-baa8-2d398cbc80d4,1,1,0,12,5027.0,3800.0,33.0,3.0,4723.0,9.0,,4907.0,1.0,4.0,-0.6,2,0,23.0,1.0,1.0,1,2,0.0,0.0,0.0,5.0,47.8,15.8,15.8,45.0,55.0,55.0,45.0,32,50.0,44.0,22.0,-0.09999999999999998,0.49375,0,0,0.4937499999999999,0,0,5011.0,0.006844933469805527,0.0,0.0,0.0,1.0
uik7aoor,b2sjpg82,03af9f8b-508e-452c-9c35-0eeba0e3b3cc,5ce597fa-5f3d-45d1-9de6-95be128b374b,1,1,0,13,5772.0,2600.0,,,4246.0,19.0,,5702.0,0.5833333333333334,3.0,-0.2833333333333334,3,0,22.0,0.0,0.0,1,2,1.0,1.0,0.0,4.0,23.25,-0.75,1.25,22.0,25.0,25.0,22.0,24,45.0,50.0,22.0,-0.5111111111111111,0.052083333333333336,0,0,-0.03125,0,0,4702.0,0.012110113421550094,0.0,0.0,0.0,1.0
uik7aoor,juhy06e8,03af9f8b-508e-452c-9c35-0eeba0e3b3cc,6e0cda1c-f51b-4272-8648-67e646ea1f31,1,1,0,13,4773.0,3800.0,,,4537.0,10.0,,4693.0,0.6666666666666666,8.0,0.13333333333333341,1,1,66.0,0.0,0.0,1,2,0.0,0.0,0.0,4.0,23.25,-0.75,1.25,22.0,25.0,25.0,22.0,24,45.0,50.0,22.0,-0.5111111111111111,0.052083333333333336,0,0,-0.03125,0,0,4777.0,0.012110113421550094,0.0,0.0,0.0,1.0
uik7aoor,hliggtnp,03af9f8b-508e-452c-9c35-0eeba0e3b3cc,3fe9607c-4723-4d14-a5b2-7580b114fb2f,1,1,0,13,5676.0,2600.0,,,4163.0,21.0,,5556.0,1.0,3.0,-0.7,3,1,33.0,1.0,1.0,1,2,0.0,0.0,0.0,4.0,23.25,-0.75,1.25,22.0,25.0,25.0,22.0,24,45.0,50.0,22.0,-0.5111111111111111,0.052083333333333336,0,0,-0.03125,0,0,4667.0,0.012110113421550094,0.5,0.5,0.0,0.0
uik7aoor,7y6562pk,03af9f8b-508e-452c-9c35-0eeba0e3b3cc,4b39ad0b-8a75-4ba9-9d24-05dd32fad900,1,1,0,13,4817.0,3800.0,,,4627.0,10.0,,4787.0,0.25,9.0,0.65,1,1,45.0,0.0,1.0,0,2,0.0,0.0,0.0,4.0,23.25,-0.75,1.25,22.0,25.0,25.0,22.0,24,45.0,50.0,22.0,-0.5111111111111111,0.052083333333333336,0,0,-0.03125,0,0,4867.0,0.012110113421550094,0.0,0.0,0.0,1.0
uik7aoor,lk5oyxpy,03af9f8b-508e-452c-9c35-0eeba0e3b3cc,8fc4cd9a-1fbb-43de-85ce-82cb99d02a2a,1,1,0,13,4459.0,2600.0,,,4033.0,24.0,,4419.0,0.3333333333333333,10.0,0.6666666666666667,1,0,33.0,1.0,0.0,1,2,0.0,0.0,0.0,4.0,23.25,-0.75,1.25,22.0,25.0,25.0,22.0,24,45.0,50.0,22.0,-0.5111111111111111,0.052083333333333336,0,0,-0.03125,0,0,4609.0,0.012110113421550094,0.0,0.0,0.0,1.0
uik7aoor,tgar6z2d,03af9f8b-508e-452c-9c35-0eeba0e3b3cc,9697f7a1-e2e7-4427-8b7e-fb165a1ab72c,1,1,0,13,4759.0,3800.0,,,4521.0,12.0,,4699.0,0.5,9.0,0.4,4,1,22.0,0.0,1.0,1,2,2.0,0.0,2.0,4.0,23.25,-0.75,1.25,22.0,25.0,25.0,22.0,24,45.0,50.0,22.0,-0.5111111111111111,0.052083333333333336,0,0,-0.03125,0,0,4809.0,0.012110113421550094,0.0,0.0,0.0,1.0
uik7aoor,z3reux71,03af9f8b-508e-452c-9c35-0eeba0e3b3cc,e467cb8d-10d2-48db-935f-2418d69da971,1,1,0,13,5706.0,2600.0,,,4358.0,15.0,,5636.0,0.5833333333333334,9.0,0.31666666666666665,1,1,21.0,0.0,0.0,0,2,1.0,3.0,-2.0,4.0,23.25,-0.75,1.25,22.0,25.0,25.0,22.0,24,45.0,50.0,22.0,-0.5111111111111111,0.052083333333333336,0,0,-0.03125,0,0,4718.0,0.012110113421550094,0.0,0.0,1.0,0.0
uik7aoor,a12rmbju,03af9f8b-508e-452c-9c35-0eeba0e3b3cc,53beb2da-e31f-4578-baa8-2d398cbc80d4,1,1,0,13,5027.0,3800.0,,,4723.0,9.0,,4907.0,1.0,4.0,-0.6,2,0,23.0,1.0,1.0,1,2,0.0,0.0,0.0,4.0,23.25,-0.75,1.25,22.0,25.0,25.0,22.0,24,45.0,50.0,22.0,-0.5111111111111111,0.052083333333333336,0,0,-0.03125,0,0,4939.0,0.012110113421550094,0.0,0.0,0.0,1.0
uik7aoor,b2sjpg82,03af9f8b-508e-452c-9c35-0eeba0e3b3cc,5ce597fa-5f3d-45d1-9de6-95be128b374b,1,1,0,14,5772.0,2600.0,,,4369.0,20.0,,5702.0,0.5833333333333334,3.0,-0.2833333333333334,3,0,22.0,0.0,0.0,1,2,1.0,0.0,1.0,3.0,26.0,10.0,10.0,22.0,27.0,29.0,22.0,16,22.0,45.0,8.0,0.0,0.625,0,0,0.625,0,0,4689.0,0.012833298341381482,0.0,0.0,0.0,1.0
uik7aoor,juhy06e8,03af9f8b-508e-452c-9c35-0eeba0e3b3cc,6e0cda1c-f51b-4272-8648-67e646ea1f31,1,1,0,14,4773.0,3800.0,,,4617.0,10.0,,4693.0,0.6666666666666666,8.0,0.13333333333333341,1,1,66.0,0.0,0.0,1,2,0.0,0.0,0.0,3.0,26.0,10.0,10.0,22.0,27.0,29.0,22.0,16,22.0,45.0,8.0,0.0,0.625,0,0,0.625,0,0,4777.0,0.012833298341381482,0.0,0.0,0.0,1.0
uik7aoor,hliggtnp,03af9f8b-508e-452c-9c35-0eeba0e3b3cc,3fe9607c-4723-4d14-a5b2-7580b114fb2f,1,1,0,14,5676.0,2600.0,,,4304.0,22.0,,5556.0,1.0,3.0,-0.7,3,1,33.0,1.0,1.0,1,2,1.0,0.0,1.0,3.0,26.0,10.0,10.0,22.0,27.0,29.0,22.0,16,22.0,45.0,8.0,0.0,0.625,0,0,0.625,0,0,4656.0,0.012833298341381482,0.5,0.5,0.0,0.0
uik7aoor,7y6562pk,03af9f8b-508e-452c-9c35-0eeba0e3b3cc,4b39ad0b-8a75-4ba9-9d24-05dd32fad900,1,1,0,14,4817.0,3800.0,,,4707.0,10.0,,4787.0,0.25,9.0,0.65,1,1,45.0,0.0,1.0,0,2,0.0,0.0,0.0,3.0,26.0,10.0,10.0,22.0,27.0,29.0,22.0,16,22.0,45.0,8.0,0.0,0.625,0,0,0.625,0,0,4867.0,0.012833298341381482,0.0,0.0,0.0,1.0
uik7aoor,lk5oyxpy,03af9f8b-508e-452c-9c35-0eeba0e3b3cc,8fc4cd9a-1fbb-43de-85ce-82cb99d02a2a,1,1,0,14,4459.0,2600.0,,,4225.0,24.0,,4419.0,0.3333333333333333,10.0,0.6666666666666667,1,0,33.0,1.0,0.0,1,2,0.0,0.0,0.0,3.0,26.0,10.0,10.0,22.0,27.0,29.0,22.0,16,22.0,45.0,8.0,0.0,0.625,0,0,0.625,0,0,4609.0,0.012833298341381482,0.0,0.0,0.0,1.0
uik7aoor,tgar6z2d,03af9f8b-508e-452c-9c35-0eeba0e3b3cc,9697f7a1-e2e7-4427-8b7e-fb165a1ab72c,1,1,0,14,4759.0,3800.0,,,4595.0,13.0,,4699.0,0.5,9.0,0.4,4,1,22.0,0.0,1.0,1,2,1.0,0.0,1.0,3.0,26.0,10.0,10.0,22.0,27.0,29.0,22.0,16,22.0,45.0,8.0,0.0,0.625,0,0,0.625,0,0,4803.0,0.012833298341381482,0.0,0.0,0.0,1.0
uik7aoor,z3reux71,03af9f8b-508e-452c-9c35-0eeba0e3b3cc,e467cb8d-10d2-48db-935f-2418d69da971,1,1,0,14,5706.0,2600.0,,,4500.0,15.0,,5636.0,0.5833333333333334,9.0,0.31666666666666665,1,1,21.0,0.0,0.0,0,2,0.0,1.0,-1.0,3.0,26.0,10.0,10.0,22.0,27.0,29.0,22.0,16,22.0,45.0,8.0,0.0,0.625,0,0,0.625,0,0,4740.0,0.012833298341381482,0.0,0.0,1.0,0.0
uik7aoor,a12rmbju,03af9f8b-508e-452c-9c35-0eeba0e3b3cc,53beb2da-e31f-4578-baa8-2d398cbc80d4,1,1,0,14,5027.0,3800.0,,,4851.0,7.0,,4907.0,1.0,4.0,-0.6,2,0,23.0,1.0,1.0,1,2,0.0,2.0,-2.0,3.0,26.0,10.0,10.0,22.0,27.0,29.0,22.0,16,22.0,45.0,8.0,0.0,0.625,0,0,0.625,0,0,4963.0,0.012833298341381482,0.0,0.0,0.0,1.0
uik7aoor,b2sjpg82,03af9f8b-508e-452c-9c35-0eeba0e3b3cc,5ce597fa-5f3d-45d1-9de6-95be128b374b,1,1,0,15,5772.0,2600.0,,,4449.0,20.0,yes,5702.0,0.5833333333333334,3.0,-0.2833333333333334,3,0,22.0,0.0,0.0,1,2,0.0,0.0,0.0,3.0,17.333333333333332,9.333333333333334,9.333333333333334,8.0,23.0,23.0,8.0,8,22.0,22.0,,-0.6363636363636364,1.1666666666666667,0,1,1.1666666666666665,1,1,4609.0,0.01579283207486972,0.0,0.0,0.0,1.0
uik7aoor,juhy06e8,03af9f8b-508e-452c-9c35-0eeba0e3b3cc,6e0cda1c-f51b-4272-8648-67e646ea1f31,1,1,0,15,4773.0,3800.0,,,4649.0,11.0,no,4693.0,0.6666666666666666,8.0,0.13333333333333341,1,1,66.0,0.0,0.0,1,2,1.0,0.0,1.0,3.0,17.333333333333332,9.333333333333334,9.333333333333334,8.0,23.0,23.0,8.0,8,22.0,22.0,,-0.6363636363636364,1.1666666666666667,0,1,1.1666666666666665,1,1,4737.0,0.01579283207486972,0.0,0.0,0.0,1.0
uik7aoor,hliggtnp,03af9f8b-508e-452c-9c35-0eeba0e3b3cc,3fe9607c-4723-4d14-a5b2-7580b114fb2f,1,1,0,15,5676.0,2600.0,,,4392.0,22.0,no,5556.0,1.0,3.0,-0.7,3,1,33.0,1.0,1.0,1,2,0.0,0.0,0.0,3.0,17.333333333333332,9.333333333333334,9.333333333333334,8.0,23.0,23.0,8.0,8,22.0,22.0,,-0.6363636363636364,1.1666666666666667,0,1,1.1666666666666665,1,1,4568.0,0.01579283207486972,0.5,0.5,0.0,0.0
uik7aoor,7y6562pk,03af9f8b-508e-452c-9c35-0eeba0e3b3cc,4b39ad0b-8a75-4ba9-9d24-05dd32fad900,1,1,0,15,4817.0,3800.0,,,4747.0,10.0,no,4787.0,0.25,9.0,0.65,1,1,45.0,0.0,1.0,0,2,0.0,0.0,0.0,3.0,17.333333333333332,9.333333333333334,9.333333333333334,8.0,23.0,23.0,8.0,8,22.0,22.0,,-0.6363636363636364,1.1666666666666667,0,1,1.1666666666666665,1,1,4827.0,0.01579283207486972,0.0,0.0,0.0,1.0
uik7aoor,lk5oyxpy,03af9f8b-508e-452c-9c35-0eeba0e3b3cc,8fc4cd9a-1fbb-43de-85ce-82cb99d02a2a,1,1,0,15,4459.0,2600.0,,,4327.0,23.0,yes,4419.0,0.3333333333333333,10.0,0.6666666666666667,1,0,33.0,1.0,0.0,1,2,1.0,2.0,-1.0,3.0,17.333333333333332,9.333333333333334,9.333333333333334,8.0,23.0,23.0,8.0,8,22.0,22.0,,-0.6363636363636364,1.1666666666666667,0,1,1.1666666666666665,1,1,4511.0,0.01579283207486972,0.0,0.0,0.0,1.0
uik7aoor,tgar6z2d,03af9f8b-508e-452c-9c35-0eeba0e3b3cc,9697f7a1-e2e7-4427-8b7e-fb165a1ab72c,1,1,0,15,4759.0,3800.0,,,4647.0,13.0,yes,4699.0,0.5,9.0,0.4,4,1,22.0,0.0,1.0,1,2,0.0,0.0,0.0,3.0,17.333333333333332,9.333333333333334,9.333333333333334,8.0,23.0,23.0,8.0,8,22.0,22.0,,-0.6363636363636364,1.1666666666666667,0,1,1.1666666666666665,1,1,4751.0,0.01579283207486972,0.0,0.0,0.0,1.0
uik7aoor,z3reux71,03af9f8b-508e-452c-9c35-0eeba0e3b3cc,e467cb8d-10d2-48db-935f-2418d69da971,1,1,0,15,5706.0,2600.0,,,4562.0,14.0,no,5636.0,0.5833333333333334,9.0,0.31666666666666665,1,1,21.0,0.0,0.0,0,2,1.0,1.0,0.0,3.0,17.333333333333332,9.333333333333334,9.333333333333334,8.0,23.0,23.0,8.0,8,22.0,22.0,,-0.6363636363636364,1.1666666666666667,0,1,1.1666666666666665,1,1,4674.0,0.01579283207486972,0.0,0.0,1.0,0.0
uik7aoor,a12rmbju,03af9f8b-508e-452c-9c35-0eeba0e3b3cc,53beb2da-e31f-4578-baa8-2d398cbc80d4,1,1,0,15,5027.0,3800.0,,,4879.0,7.0,yes,4907.0,1.0,4.0,-0.6,2,0,23.0,1.0,1.0,1,2,0.0,0.0,0.0,3.0,17.333333333333332,9.333333333333334,9.333333333333334,8.0,23.0,23.0,8.0,8,22.0,22.0,,-0.6363636363636364,1.1666666666666667,0,1,1.1666666666666665,1,1,4935.0,0.01579283207486972,0.0,0.0,0.0,1.0
